USUBJID,TRT01P,PARAMCD,PARAM,AVISITN,AVISIT,AVAL,BASE,CHG
XYZ123-0101,Placebo,HBA1C,HbA1c (%),0,Baseline,8.51,8.51,0.0
XYZ123-0101,Placebo,HBA1C,HbA1c (%),2,Week 2,7.92,8.51,-0.59
XYZ123-0101,Placebo,HBA1C,HbA1c (%),4,Week 4,8.03,8.51,-0.48
XYZ123-0101,Placebo,HBA1C,HbA1c (%),8,Week 8,8.09,8.51,-0.43
XYZ123-0101,Placebo,HBA1C,HbA1c (%),12,Week 12,7.92,8.51,-0.59
XYZ123-0101,Placebo,HBA1C,HbA1c (%),24,Week 24,8.17,8.51,-0.34
XYZ123-0102,Drug A 10 mg,HBA1C,HbA1c (%),0,Baseline,7.89,7.89,0.0
XYZ123-0102,Drug A 10 mg,HBA1C,HbA1c (%),2,Week 2,8.52,7.89,0.63
XYZ123-0102,Drug A 10 mg,HBA1C,HbA1c (%),4,Week 4,7.65,7.89,-0.24
XYZ123-0102,Drug A 10 mg,HBA1C,HbA1c (%),8,Week 8,6.88,7.89,-1.01
XYZ123-0102,Drug A 10 mg,HBA1C,HbA1c (%),12,Week 12,6.63,7.89,-1.26
XYZ123-0102,Drug A 10 mg,HBA1C,HbA1c (%),24,Week 24,7.08,7.89,-0.81
XYZ123-0103,Drug A 20 mg,HBA1C,HbA1c (%),0,Baseline,7.99,7.99,0.0
XYZ123-0103,Drug A 20 mg,HBA1C,HbA1c (%),2,Week 2,8.43,7.99,0.44
XYZ123-0103,Drug A 20 mg,HBA1C,HbA1c (%),4,Week 4,8.13,7.99,0.14
XYZ123-0103,Drug A 20 mg,HBA1C,HbA1c (%),8,Week 8,7.18,7.99,-0.81
XYZ123-0103,Drug A 20 mg,HBA1C,HbA1c (%),12,Week 12,6.71,7.99,-1.28
XYZ123-0103,Drug A 20 mg,HBA1C,HbA1c (%),24,Week 24,7.17,7.99,-0.82
XYZ123-0104,Placebo,HBA1C,HbA1c (%),0,Baseline,8.21,8.21,0.0
XYZ123-0104,Placebo,HBA1C,HbA1c (%),2,Week 2,7.71,8.21,-0.5
XYZ123-0104,Placebo,HBA1C,HbA1c (%),4,Week 4,7.99,8.21,-0.22
XYZ123-0104,Placebo,HBA1C,HbA1c (%),8,Week 8,7.94,8.21,-0.27
XYZ123-0104,Placebo,HBA1C,HbA1c (%),12,Week 12,8.41,8.21,0.2
XYZ123-0104,Placebo,HBA1C,HbA1c (%),24,Week 24,7.86,8.21,-0.35
XYZ123-0105,Drug A 10 mg,HBA1C,HbA1c (%),0,Baseline,7.17,7.17,0.0
XYZ123-0105,Drug A 10 mg,HBA1C,HbA1c (%),2,Week 2,7.01,7.17,-0.16
XYZ123-0105,Drug A 10 mg,HBA1C,HbA1c (%),4,Week 4,6.91,7.17,-0.26
XYZ123-0105,Drug A 10 mg,HBA1C,HbA1c (%),8,Week 8,6.91,7.17,-0.26
XYZ123-0105,Drug A 10 mg,HBA1C,HbA1c (%),12,Week 12,6.48,7.17,-0.69
XYZ123-0105,Drug A 10 mg,HBA1C,HbA1c (%),24,Week 24,6.3,7.17,-0.87
XYZ123-0106,Drug A 20 mg,HBA1C,HbA1c (%),0,Baseline,8.84,8.84,0.0
XYZ123-0106,Drug A 20 mg,HBA1C,HbA1c (%),2,Week 2,8.48,8.84,-0.35
XYZ123-0106,Drug A 20 mg,HBA1C,HbA1c (%),4,Week 4,9.27,8.84,0.43
XYZ123-0106,Drug A 20 mg,HBA1C,HbA1c (%),8,Week 8,7.8,8.84,-1.04
XYZ123-0106,Drug A 20 mg,HBA1C,HbA1c (%),12,Week 12,7.89,8.84,-0.95
XYZ123-0106,Drug A 20 mg,HBA1C,HbA1c (%),24,Week 24,8.46,8.84,-0.38
XYZ123-0107,Placebo,HBA1C,HbA1c (%),0,Baseline,8.74,8.74,0.0
XYZ123-0107,Placebo,HBA1C,HbA1c (%),2,Week 2,8.47,8.74,-0.27
XYZ123-0107,Placebo,HBA1C,HbA1c (%),4,Week 4,8.53,8.74,-0.21
XYZ123-0107,Placebo,HBA1C,HbA1c (%),8,Week 8,9.66,8.74,0.92
XYZ123-0107,Placebo,HBA1C,HbA1c (%),12,Week 12,8.64,8.74,-0.1
XYZ123-0107,Placebo,HBA1C,HbA1c (%),24,Week 24,7.51,8.74,-1.23
XYZ123-0108,Drug A 10 mg,HBA1C,HbA1c (%),0,Baseline,7.79,7.79,0.0
XYZ123-0108,Drug A 10 mg,HBA1C,HbA1c (%),2,Week 2,7.74,7.79,-0.06
XYZ123-0108,Drug A 10 mg,HBA1C,HbA1c (%),4,Week 4,7.47,7.79,-0.32
XYZ123-0108,Drug A 10 mg,HBA1C,HbA1c (%),8,Week 8,7.49,7.79,-0.3
XYZ123-0108,Drug A 10 mg,HBA1C,HbA1c (%),12,Week 12,6.79,7.79,-1.0
XYZ123-0108,Drug A 10 mg,HBA1C,HbA1c (%),24,Week 24,7.62,7.79,-0.17
XYZ123-0109,Drug A 20 mg,HBA1C,HbA1c (%),0,Baseline,7.9,7.9,0.0
XYZ123-0109,Drug A 20 mg,HBA1C,HbA1c (%),2,Week 2,7.77,7.9,-0.13
XYZ123-0109,Drug A 20 mg,HBA1C,HbA1c (%),4,Week 4,7.5,7.9,-0.4
XYZ123-0109,Drug A 20 mg,HBA1C,HbA1c (%),8,Week 8,6.82,7.9,-1.08
XYZ123-0109,Drug A 20 mg,HBA1C,HbA1c (%),12,Week 12,6.96,7.9,-0.95
XYZ123-0109,Drug A 20 mg,HBA1C,HbA1c (%),24,Week 24,6.95,7.9,-0.95
XYZ123-0110,Placebo,HBA1C,HbA1c (%),0,Baseline,8.6,8.6,0.0
XYZ123-0110,Placebo,HBA1C,HbA1c (%),2,Week 2,8.96,8.6,0.36
XYZ123-0110,Placebo,HBA1C,HbA1c (%),4,Week 4,8.76,8.6,0.17
XYZ123-0110,Placebo,HBA1C,HbA1c (%),8,Week 8,9.13,8.6,0.53
XYZ123-0110,Placebo,HBA1C,HbA1c (%),12,Week 12,8.63,8.6,0.03
XYZ123-0110,Placebo,HBA1C,HbA1c (%),24,Week 24,8.69,8.6,0.09
XYZ123-0111,Drug A 10 mg,HBA1C,HbA1c (%),0,Baseline,8.51,8.51,0.0
XYZ123-0111,Drug A 10 mg,HBA1C,HbA1c (%),2,Week 2,8.51,8.51,-0.0
XYZ123-0111,Drug A 10 mg,HBA1C,HbA1c (%),4,Week 4,7.93,8.51,-0.58
XYZ123-0111,Drug A 10 mg,HBA1C,HbA1c (%),8,Week 8,8.11,8.51,-0.41
XYZ123-0111,Drug A 10 mg,HBA1C,HbA1c (%),12,Week 12,7.32,8.51,-1.19
XYZ123-0111,Drug A 10 mg,HBA1C,HbA1c (%),24,Week 24,7.8,8.51,-0.71
XYZ123-0112,Drug A 20 mg,HBA1C,HbA1c (%),0,Baseline,8.05,8.05,0.0
XYZ123-0112,Drug A 20 mg,HBA1C,HbA1c (%),2,Week 2,7.98,8.05,-0.07
XYZ123-0112,Drug A 20 mg,HBA1C,HbA1c (%),4,Week 4,7.48,8.05,-0.57
XYZ123-0112,Drug A 20 mg,HBA1C,HbA1c (%),8,Week 8,7.64,8.05,-0.41
XYZ123-0112,Drug A 20 mg,HBA1C,HbA1c (%),12,Week 12,7.35,8.05,-0.7
XYZ123-0112,Drug A 20 mg,HBA1C,HbA1c (%),24,Week 24,7.26,8.05,-0.79
XYZ123-0113,Placebo,HBA1C,HbA1c (%),0,Baseline,7.84,7.84,0.0
XYZ123-0113,Placebo,HBA1C,HbA1c (%),2,Week 2,7.79,7.84,-0.05
XYZ123-0113,Placebo,HBA1C,HbA1c (%),4,Week 4,8.04,7.84,0.2
XYZ123-0113,Placebo,HBA1C,HbA1c (%),8,Week 8,8.59,7.84,0.76
XYZ123-0113,Placebo,HBA1C,HbA1c (%),12,Week 12,7.61,7.84,-0.23
XYZ123-0113,Placebo,HBA1C,HbA1c (%),24,Week 24,8.06,7.84,0.22
XYZ123-0114,Drug A 10 mg,HBA1C,HbA1c (%),0,Baseline,7.26,7.26,0.0
XYZ123-0114,Drug A 10 mg,HBA1C,HbA1c (%),2,Week 2,7.17,7.26,-0.09
XYZ123-0114,Drug A 10 mg,HBA1C,HbA1c (%),4,Week 4,6.67,7.26,-0.58
XYZ123-0114,Drug A 10 mg,HBA1C,HbA1c (%),8,Week 8,7.37,7.26,0.12
XYZ123-0114,Drug A 10 mg,HBA1C,HbA1c (%),12,Week 12,6.66,7.26,-0.6
XYZ123-0114,Drug A 10 mg,HBA1C,HbA1c (%),24,Week 24,6.76,7.26,-0.49
XYZ123-0115,Drug A 20 mg,HBA1C,HbA1c (%),0,Baseline,7.53,7.53,0.0
XYZ123-0115,Drug A 20 mg,HBA1C,HbA1c (%),2,Week 2,7.37,7.53,-0.16
XYZ123-0115,Drug A 20 mg,HBA1C,HbA1c (%),4,Week 4,7.51,7.53,-0.02
XYZ123-0115,Drug A 20 mg,HBA1C,HbA1c (%),8,Week 8,7.32,7.53,-0.22
XYZ123-0115,Drug A 20 mg,HBA1C,HbA1c (%),12,Week 12,6.79,7.53,-0.75
XYZ123-0115,Drug A 20 mg,HBA1C,HbA1c (%),24,Week 24,6.27,7.53,-1.27
XYZ123-0116,Placebo,HBA1C,HbA1c (%),0,Baseline,8.24,8.24,0.0
XYZ123-0116,Placebo,HBA1C,HbA1c (%),2,Week 2,8.71,8.24,0.47
XYZ123-0116,Placebo,HBA1C,HbA1c (%),4,Week 4,8.43,8.24,0.19
XYZ123-0116,Placebo,HBA1C,HbA1c (%),8,Week 8,8.58,8.24,0.34
XYZ123-0116,Placebo,HBA1C,HbA1c (%),12,Week 12,7.57,8.24,-0.67
XYZ123-0116,Placebo,HBA1C,HbA1c (%),24,Week 24,8.11,8.24,-0.13
XYZ123-0117,Drug A 10 mg,HBA1C,HbA1c (%),0,Baseline,8.28,8.28,0.0
XYZ123-0117,Drug A 10 mg,HBA1C,HbA1c (%),2,Week 2,8.47,8.28,0.19
XYZ123-0117,Drug A 10 mg,HBA1C,HbA1c (%),4,Week 4,8.35,8.28,0.07
XYZ123-0117,Drug A 10 mg,HBA1C,HbA1c (%),8,Week 8,7.56,8.28,-0.72
XYZ123-0117,Drug A 10 mg,HBA1C,HbA1c (%),12,Week 12,8.0,8.28,-0.28
XYZ123-0117,Drug A 10 mg,HBA1C,HbA1c (%),24,Week 24,7.99,8.28,-0.29
XYZ123-0118,Drug A 20 mg,HBA1C,HbA1c (%),0,Baseline,7.56,7.56,0.0
XYZ123-0118,Drug A 20 mg,HBA1C,HbA1c (%),2,Week 2,7.32,7.56,-0.24
XYZ123-0118,Drug A 20 mg,HBA1C,HbA1c (%),4,Week 4,7.16,7.56,-0.41
XYZ123-0118,Drug A 20 mg,HBA1C,HbA1c (%),8,Week 8,7.36,7.56,-0.21
XYZ123-0118,Drug A 20 mg,HBA1C,HbA1c (%),12,Week 12,7.02,7.56,-0.55
XYZ123-0118,Drug A 20 mg,HBA1C,HbA1c (%),24,Week 24,6.72,7.56,-0.85
XYZ123-0119,Placebo,HBA1C,HbA1c (%),0,Baseline,7.55,7.55,0.0
XYZ123-0119,Placebo,HBA1C,HbA1c (%),2,Week 2,7.87,7.55,0.32
XYZ123-0119,Placebo,HBA1C,HbA1c (%),4,Week 4,7.77,7.55,0.21
XYZ123-0119,Placebo,HBA1C,HbA1c (%),8,Week 8,7.44,7.55,-0.12
XYZ123-0119,Placebo,HBA1C,HbA1c (%),12,Week 12,7.28,7.55,-0.27
XYZ123-0119,Placebo,HBA1C,HbA1c (%),24,Week 24,7.76,7.55,0.21
XYZ123-0120,Drug A 10 mg,HBA1C,HbA1c (%),0,Baseline,8.23,8.23,0.0
XYZ123-0120,Drug A 10 mg,HBA1C,HbA1c (%),2,Week 2,7.96,8.23,-0.27
XYZ123-0120,Drug A 10 mg,HBA1C,HbA1c (%),4,Week 4,7.77,8.23,-0.46
XYZ123-0120,Drug A 10 mg,HBA1C,HbA1c (%),8,Week 8,7.89,8.23,-0.34
XYZ123-0120,Drug A 10 mg,HBA1C,HbA1c (%),12,Week 12,7.6,8.23,-0.63
XYZ123-0120,Drug A 10 mg,HBA1C,HbA1c (%),24,Week 24,7.44,8.23,-0.79
XYZ123-0121,Drug A 20 mg,HBA1C,HbA1c (%),0,Baseline,8.74,8.74,0.0
XYZ123-0121,Drug A 20 mg,HBA1C,HbA1c (%),2,Week 2,8.55,8.74,-0.18
XYZ123-0121,Drug A 20 mg,HBA1C,HbA1c (%),4,Week 4,8.26,8.74,-0.48
XYZ123-0121,Drug A 20 mg,HBA1C,HbA1c (%),8,Week 8,8.31,8.74,-0.42
XYZ123-0121,Drug A 20 mg,HBA1C,HbA1c (%),12,Week 12,9.02,8.74,0.28
XYZ123-0121,Drug A 20 mg,HBA1C,HbA1c (%),24,Week 24,7.74,8.74,-1.0
XYZ123-0122,Placebo,HBA1C,HbA1c (%),0,Baseline,6.1,6.1,0.0
XYZ123-0122,Placebo,HBA1C,HbA1c (%),2,Week 2,5.59,6.1,-0.5
XYZ123-0122,Placebo,HBA1C,HbA1c (%),4,Week 4,6.46,6.1,0.36
XYZ123-0122,Placebo,HBA1C,HbA1c (%),8,Week 8,5.55,6.1,-0.55
XYZ123-0122,Placebo,HBA1C,HbA1c (%),12,Week 12,6.19,6.1,0.1
XYZ123-0122,Placebo,HBA1C,HbA1c (%),24,Week 24,6.38,6.1,0.28
XYZ123-0123,Drug A 10 mg,HBA1C,HbA1c (%),0,Baseline,7.49,7.49,0.0
XYZ123-0123,Drug A 10 mg,HBA1C,HbA1c (%),2,Week 2,7.85,7.49,0.36
XYZ123-0123,Drug A 10 mg,HBA1C,HbA1c (%),4,Week 4,7.58,7.49,0.09
XYZ123-0123,Drug A 10 mg,HBA1C,HbA1c (%),8,Week 8,7.14,7.49,-0.35
XYZ123-0123,Drug A 10 mg,HBA1C,HbA1c (%),12,Week 12,6.54,7.49,-0.95
XYZ123-0123,Drug A 10 mg,HBA1C,HbA1c (%),24,Week 24,7.13,7.49,-0.36
XYZ123-0124,Drug A 20 mg,HBA1C,HbA1c (%),0,Baseline,8.58,8.58,0.0
XYZ123-0124,Drug A 20 mg,HBA1C,HbA1c (%),2,Week 2,8.0,8.58,-0.58
XYZ123-0124,Drug A 20 mg,HBA1C,HbA1c (%),4,Week 4,8.05,8.58,-0.52
XYZ123-0124,Drug A 20 mg,HBA1C,HbA1c (%),8,Week 8,7.73,8.58,-0.85
XYZ123-0124,Drug A 20 mg,HBA1C,HbA1c (%),12,Week 12,7.15,8.58,-1.43
XYZ123-0124,Drug A 20 mg,HBA1C,HbA1c (%),24,Week 24,8.16,8.58,-0.42
XYZ123-0125,Placebo,HBA1C,HbA1c (%),0,Baseline,7.49,7.49,0.0
XYZ123-0125,Placebo,HBA1C,HbA1c (%),2,Week 2,7.13,7.49,-0.35
XYZ123-0125,Placebo,HBA1C,HbA1c (%),4,Week 4,7.36,7.49,-0.12
XYZ123-0125,Placebo,HBA1C,HbA1c (%),8,Week 8,7.71,7.49,0.22
XYZ123-0125,Placebo,HBA1C,HbA1c (%),12,Week 12,6.96,7.49,-0.52
XYZ123-0125,Placebo,HBA1C,HbA1c (%),24,Week 24,7.49,7.49,0.0
XYZ123-0126,Drug A 10 mg,HBA1C,HbA1c (%),0,Baseline,8.55,8.55,0.0
XYZ123-0126,Drug A 10 mg,HBA1C,HbA1c (%),2,Week 2,9.0,8.55,0.45
XYZ123-0126,Drug A 10 mg,HBA1C,HbA1c (%),4,Week 4,8.1,8.55,-0.45
XYZ123-0126,Drug A 10 mg,HBA1C,HbA1c (%),8,Week 8,8.37,8.55,-0.18
XYZ123-0126,Drug A 10 mg,HBA1C,HbA1c (%),12,Week 12,7.93,8.55,-0.62
XYZ123-0126,Drug A 10 mg,HBA1C,HbA1c (%),24,Week 24,7.38,8.55,-1.17
XYZ123-0127,Drug A 20 mg,HBA1C,HbA1c (%),0,Baseline,7.95,7.95,0.0
XYZ123-0127,Drug A 20 mg,HBA1C,HbA1c (%),2,Week 2,7.63,7.95,-0.32
XYZ123-0127,Drug A 20 mg,HBA1C,HbA1c (%),4,Week 4,7.12,7.95,-0.83
XYZ123-0127,Drug A 20 mg,HBA1C,HbA1c (%),8,Week 8,7.46,7.95,-0.49
XYZ123-0127,Drug A 20 mg,HBA1C,HbA1c (%),12,Week 12,6.93,7.95,-1.02
XYZ123-0127,Drug A 20 mg,HBA1C,HbA1c (%),24,Week 24,6.9,7.95,-1.05
XYZ123-0128,Placebo,HBA1C,HbA1c (%),0,Baseline,7.98,7.98,0.0
XYZ123-0128,Placebo,HBA1C,HbA1c (%),2,Week 2,8.16,7.98,0.19
XYZ123-0128,Placebo,HBA1C,HbA1c (%),4,Week 4,8.29,7.98,0.31
XYZ123-0128,Placebo,HBA1C,HbA1c (%),8,Week 8,7.82,7.98,-0.15
XYZ123-0128,Placebo,HBA1C,HbA1c (%),12,Week 12,7.81,7.98,-0.17
XYZ123-0128,Placebo,HBA1C,HbA1c (%),24,Week 24,7.9,7.98,-0.08
XYZ123-0129,Drug A 10 mg,HBA1C,HbA1c (%),0,Baseline,7.58,7.58,0.0
XYZ123-0129,Drug A 10 mg,HBA1C,HbA1c (%),2,Week 2,7.15,7.58,-0.42
XYZ123-0129,Drug A 10 mg,HBA1C,HbA1c (%),4,Week 4,7.57,7.58,-0.01
XYZ123-0129,Drug A 10 mg,HBA1C,HbA1c (%),8,Week 8,7.04,7.58,-0.54
XYZ123-0129,Drug A 10 mg,HBA1C,HbA1c (%),12,Week 12,7.05,7.58,-0.53
XYZ123-0129,Drug A 10 mg,HBA1C,HbA1c (%),24,Week 24,7.38,7.58,-0.2
XYZ123-0130,Drug A 20 mg,HBA1C,HbA1c (%),0,Baseline,8.19,8.19,0.0
XYZ123-0130,Drug A 20 mg,HBA1C,HbA1c (%),2,Week 2,8.09,8.19,-0.1
XYZ123-0130,Drug A 20 mg,HBA1C,HbA1c (%),4,Week 4,8.2,8.19,0.01
XYZ123-0130,Drug A 20 mg,HBA1C,HbA1c (%),8,Week 8,7.48,8.19,-0.72
XYZ123-0130,Drug A 20 mg,HBA1C,HbA1c (%),12,Week 12,7.81,8.19,-0.38
XYZ123-0130,Drug A 20 mg,HBA1C,HbA1c (%),24,Week 24,7.47,8.19,-0.72
XYZ123-0131,Placebo,HBA1C,HbA1c (%),0,Baseline,7.5,7.5,0.0
XYZ123-0131,Placebo,HBA1C,HbA1c (%),2,Week 2,6.59,7.5,-0.91
XYZ123-0131,Placebo,HBA1C,HbA1c (%),4,Week 4,7.34,7.5,-0.16
XYZ123-0131,Placebo,HBA1C,HbA1c (%),8,Week 8,6.66,7.5,-0.84
XYZ123-0131,Placebo,HBA1C,HbA1c (%),12,Week 12,7.41,7.5,-0.09
XYZ123-0131,Placebo,HBA1C,HbA1c (%),24,Week 24,7.27,7.5,-0.24
XYZ123-0132,Drug A 10 mg,HBA1C,HbA1c (%),0,Baseline,7.74,7.74,0.0
XYZ123-0132,Drug A 10 mg,HBA1C,HbA1c (%),2,Week 2,7.9,7.74,0.15
XYZ123-0132,Drug A 10 mg,HBA1C,HbA1c (%),4,Week 4,7.3,7.74,-0.44
XYZ123-0132,Drug A 10 mg,HBA1C,HbA1c (%),8,Week 8,7.62,7.74,-0.13
XYZ123-0132,Drug A 10 mg,HBA1C,HbA1c (%),12,Week 12,7.06,7.74,-0.69
XYZ123-0132,Drug A 10 mg,HBA1C,HbA1c (%),24,Week 24,7.11,7.74,-0.63
XYZ123-0133,Drug A 20 mg,HBA1C,HbA1c (%),0,Baseline,8.08,8.08,0.0
XYZ123-0133,Drug A 20 mg,HBA1C,HbA1c (%),2,Week 2,7.95,8.08,-0.13
XYZ123-0133,Drug A 20 mg,HBA1C,HbA1c (%),4,Week 4,7.78,8.08,-0.3
XYZ123-0133,Drug A 20 mg,HBA1C,HbA1c (%),8,Week 8,7.65,8.08,-0.43
XYZ123-0133,Drug A 20 mg,HBA1C,HbA1c (%),12,Week 12,7.39,8.08,-0.7
XYZ123-0133,Drug A 20 mg,HBA1C,HbA1c (%),24,Week 24,7.29,8.08,-0.79
XYZ123-0134,Placebo,HBA1C,HbA1c (%),0,Baseline,8.09,8.09,0.0
XYZ123-0134,Placebo,HBA1C,HbA1c (%),2,Week 2,8.07,8.09,-0.01
XYZ123-0134,Placebo,HBA1C,HbA1c (%),4,Week 4,8.07,8.09,-0.02
XYZ123-0134,Placebo,HBA1C,HbA1c (%),8,Week 8,8.0,8.09,-0.08
XYZ123-0134,Placebo,HBA1C,HbA1c (%),12,Week 12,8.16,8.09,0.07
XYZ123-0134,Placebo,HBA1C,HbA1c (%),24,Week 24,7.96,8.09,-0.12
XYZ123-0135,Drug A 10 mg,HBA1C,HbA1c (%),0,Baseline,7.8,7.8,0.0
XYZ123-0135,Drug A 10 mg,HBA1C,HbA1c (%),2,Week 2,7.87,7.8,0.07
XYZ123-0135,Drug A 10 mg,HBA1C,HbA1c (%),4,Week 4,7.36,7.8,-0.44
XYZ123-0135,Drug A 10 mg,HBA1C,HbA1c (%),8,Week 8,7.38,7.8,-0.42
XYZ123-0135,Drug A 10 mg,HBA1C,HbA1c (%),12,Week 12,7.25,7.8,-0.55
XYZ123-0135,Drug A 10 mg,HBA1C,HbA1c (%),24,Week 24,7.24,7.8,-0.56
XYZ123-0136,Drug A 20 mg,HBA1C,HbA1c (%),0,Baseline,7.1,7.1,0.0
XYZ123-0136,Drug A 20 mg,HBA1C,HbA1c (%),2,Week 2,7.24,7.1,0.14
XYZ123-0136,Drug A 20 mg,HBA1C,HbA1c (%),4,Week 4,6.96,7.1,-0.14
XYZ123-0136,Drug A 20 mg,HBA1C,HbA1c (%),8,Week 8,6.2,7.1,-0.9
XYZ123-0136,Drug A 20 mg,HBA1C,HbA1c (%),12,Week 12,6.32,7.1,-0.78
XYZ123-0136,Drug A 20 mg,HBA1C,HbA1c (%),24,Week 24,6.33,7.1,-0.77
XYZ123-0137,Placebo,HBA1C,HbA1c (%),0,Baseline,7.48,7.48,0.0
XYZ123-0137,Placebo,HBA1C,HbA1c (%),2,Week 2,6.86,7.48,-0.62
XYZ123-0137,Placebo,HBA1C,HbA1c (%),4,Week 4,7.85,7.48,0.37
XYZ123-0137,Placebo,HBA1C,HbA1c (%),8,Week 8,7.06,7.48,-0.42
XYZ123-0137,Placebo,HBA1C,HbA1c (%),12,Week 12,7.55,7.48,0.07
XYZ123-0137,Placebo,HBA1C,HbA1c (%),24,Week 24,7.97,7.48,0.5
XYZ123-0138,Drug A 10 mg,HBA1C,HbA1c (%),0,Baseline,8.71,8.71,0.0
XYZ123-0138,Drug A 10 mg,HBA1C,HbA1c (%),2,Week 2,8.77,8.71,0.06
XYZ123-0138,Drug A 10 mg,HBA1C,HbA1c (%),4,Week 4,8.02,8.71,-0.69
XYZ123-0138,Drug A 10 mg,HBA1C,HbA1c (%),8,Week 8,8.9,8.71,0.19
XYZ123-0138,Drug A 10 mg,HBA1C,HbA1c (%),12,Week 12,8.03,8.71,-0.68
XYZ123-0138,Drug A 10 mg,HBA1C,HbA1c (%),24,Week 24,8.45,8.71,-0.26
XYZ123-0139,Drug A 20 mg,HBA1C,HbA1c (%),0,Baseline,8.22,8.22,0.0
XYZ123-0139,Drug A 20 mg,HBA1C,HbA1c (%),2,Week 2,8.36,8.22,0.14
XYZ123-0139,Drug A 20 mg,HBA1C,HbA1c (%),4,Week 4,7.83,8.22,-0.39
XYZ123-0139,Drug A 20 mg,HBA1C,HbA1c (%),8,Week 8,8.36,8.22,0.15
XYZ123-0139,Drug A 20 mg,HBA1C,HbA1c (%),12,Week 12,7.18,8.22,-1.04
XYZ123-0139,Drug A 20 mg,HBA1C,HbA1c (%),24,Week 24,7.16,8.22,-1.05
XYZ123-0140,Placebo,HBA1C,HbA1c (%),0,Baseline,7.44,7.44,0.0
XYZ123-0140,Placebo,HBA1C,HbA1c (%),2,Week 2,7.95,7.44,0.51
XYZ123-0140,Placebo,HBA1C,HbA1c (%),4,Week 4,7.07,7.44,-0.37
XYZ123-0140,Placebo,HBA1C,HbA1c (%),8,Week 8,7.49,7.44,0.05
XYZ123-0140,Placebo,HBA1C,HbA1c (%),12,Week 12,7.15,7.44,-0.29
XYZ123-0140,Placebo,HBA1C,HbA1c (%),24,Week 24,8.48,7.44,1.04
XYZ123-0141,Drug A 10 mg,HBA1C,HbA1c (%),0,Baseline,7.65,7.65,0.0
XYZ123-0141,Drug A 10 mg,HBA1C,HbA1c (%),2,Week 2,7.62,7.65,-0.03
XYZ123-0141,Drug A 10 mg,HBA1C,HbA1c (%),4,Week 4,7.4,7.65,-0.25
XYZ123-0141,Drug A 10 mg,HBA1C,HbA1c (%),8,Week 8,7.3,7.65,-0.34
XYZ123-0141,Drug A 10 mg,HBA1C,HbA1c (%),12,Week 12,6.75,7.65,-0.9
XYZ123-0141,Drug A 10 mg,HBA1C,HbA1c (%),24,Week 24,6.9,7.65,-0.75
XYZ123-0142,Drug A 20 mg,HBA1C,HbA1c (%),0,Baseline,6.97,6.97,0.0
XYZ123-0142,Drug A 20 mg,HBA1C,HbA1c (%),2,Week 2,7.06,6.97,0.09
XYZ123-0142,Drug A 20 mg,HBA1C,HbA1c (%),4,Week 4,6.73,6.97,-0.24
XYZ123-0142,Drug A 20 mg,HBA1C,HbA1c (%),8,Week 8,6.78,6.97,-0.19
XYZ123-0142,Drug A 20 mg,HBA1C,HbA1c (%),12,Week 12,6.68,6.97,-0.29
XYZ123-0142,Drug A 20 mg,HBA1C,HbA1c (%),24,Week 24,5.77,6.97,-1.2
XYZ123-0143,Placebo,HBA1C,HbA1c (%),0,Baseline,7.72,7.72,0.0
XYZ123-0143,Placebo,HBA1C,HbA1c (%),2,Week 2,7.71,7.72,-0.01
XYZ123-0143,Placebo,HBA1C,HbA1c (%),4,Week 4,7.7,7.72,-0.01
XYZ123-0143,Placebo,HBA1C,HbA1c (%),8,Week 8,7.18,7.72,-0.54
XYZ123-0143,Placebo,HBA1C,HbA1c (%),12,Week 12,7.56,7.72,-0.16
XYZ123-0143,Placebo,HBA1C,HbA1c (%),24,Week 24,7.9,7.72,0.18
XYZ123-0144,Drug A 10 mg,HBA1C,HbA1c (%),0,Baseline,8.28,8.28,0.0
XYZ123-0144,Drug A 10 mg,HBA1C,HbA1c (%),2,Week 2,7.91,8.28,-0.37
XYZ123-0144,Drug A 10 mg,HBA1C,HbA1c (%),4,Week 4,8.44,8.28,0.16
XYZ123-0144,Drug A 10 mg,HBA1C,HbA1c (%),8,Week 8,7.94,8.28,-0.34
XYZ123-0144,Drug A 10 mg,HBA1C,HbA1c (%),12,Week 12,7.7,8.28,-0.57
XYZ123-0144,Drug A 10 mg,HBA1C,HbA1c (%),24,Week 24,8.37,8.28,0.09
XYZ123-0145,Drug A 20 mg,HBA1C,HbA1c (%),0,Baseline,8.4,8.4,0.0
XYZ123-0145,Drug A 20 mg,HBA1C,HbA1c (%),2,Week 2,8.05,8.4,-0.35
XYZ123-0145,Drug A 20 mg,HBA1C,HbA1c (%),4,Week 4,7.74,8.4,-0.66
XYZ123-0145,Drug A 20 mg,HBA1C,HbA1c (%),8,Week 8,8.1,8.4,-0.3
XYZ123-0145,Drug A 20 mg,HBA1C,HbA1c (%),12,Week 12,7.39,8.4,-1.01
XYZ123-0145,Drug A 20 mg,HBA1C,HbA1c (%),24,Week 24,7.59,8.4,-0.8
XYZ123-0146,Placebo,HBA1C,HbA1c (%),0,Baseline,7.62,7.62,0.0
XYZ123-0146,Placebo,HBA1C,HbA1c (%),2,Week 2,7.59,7.62,-0.03
XYZ123-0146,Placebo,HBA1C,HbA1c (%),4,Week 4,7.84,7.62,0.22
XYZ123-0146,Placebo,HBA1C,HbA1c (%),8,Week 8,7.47,7.62,-0.15
XYZ123-0146,Placebo,HBA1C,HbA1c (%),12,Week 12,6.95,7.62,-0.67
XYZ123-0146,Placebo,HBA1C,HbA1c (%),24,Week 24,7.79,7.62,0.17
XYZ123-0147,Drug A 10 mg,HBA1C,HbA1c (%),0,Baseline,7.35,7.35,0.0
XYZ123-0147,Drug A 10 mg,HBA1C,HbA1c (%),2,Week 2,7.41,7.35,0.07
XYZ123-0147,Drug A 10 mg,HBA1C,HbA1c (%),4,Week 4,6.97,7.35,-0.37
XYZ123-0147,Drug A 10 mg,HBA1C,HbA1c (%),8,Week 8,5.8,7.35,-1.55
XYZ123-0147,Drug A 10 mg,HBA1C,HbA1c (%),12,Week 12,6.63,7.35,-0.71
XYZ123-0147,Drug A 10 mg,HBA1C,HbA1c (%),24,Week 24,6.64,7.35,-0.7
XYZ123-0148,Drug A 20 mg,HBA1C,HbA1c (%),0,Baseline,7.94,7.94,0.0
XYZ123-0148,Drug A 20 mg,HBA1C,HbA1c (%),2,Week 2,7.44,7.94,-0.5
XYZ123-0148,Drug A 20 mg,HBA1C,HbA1c (%),4,Week 4,7.85,7.94,-0.08
XYZ123-0148,Drug A 20 mg,HBA1C,HbA1c (%),8,Week 8,7.37,7.94,-0.57
XYZ123-0148,Drug A 20 mg,HBA1C,HbA1c (%),12,Week 12,6.85,7.94,-1.08
XYZ123-0148,Drug A 20 mg,HBA1C,HbA1c (%),24,Week 24,7.03,7.94,-0.91
XYZ123-0149,Placebo,HBA1C,HbA1c (%),0,Baseline,8.95,8.95,0.0
XYZ123-0149,Placebo,HBA1C,HbA1c (%),2,Week 2,9.35,8.95,0.4
XYZ123-0149,Placebo,HBA1C,HbA1c (%),4,Week 4,8.49,8.95,-0.46
XYZ123-0149,Placebo,HBA1C,HbA1c (%),8,Week 8,9.11,8.95,0.16
XYZ123-0149,Placebo,HBA1C,HbA1c (%),12,Week 12,9.28,8.95,0.32
XYZ123-0149,Placebo,HBA1C,HbA1c (%),24,Week 24,8.82,8.95,-0.13
XYZ123-0150,Drug A 10 mg,HBA1C,HbA1c (%),0,Baseline,8.36,8.36,0.0
XYZ123-0150,Drug A 10 mg,HBA1C,HbA1c (%),2,Week 2,8.36,8.36,0.01
XYZ123-0150,Drug A 10 mg,HBA1C,HbA1c (%),4,Week 4,8.36,8.36,-0.0
XYZ123-0150,Drug A 10 mg,HBA1C,HbA1c (%),8,Week 8,7.93,8.36,-0.43
XYZ123-0150,Drug A 10 mg,HBA1C,HbA1c (%),12,Week 12,7.91,8.36,-0.45
XYZ123-0150,Drug A 10 mg,HBA1C,HbA1c (%),24,Week 24,7.56,8.36,-0.79
XYZ123-0151,Drug A 20 mg,HBA1C,HbA1c (%),0,Baseline,8.34,8.34,0.0
XYZ123-0151,Drug A 20 mg,HBA1C,HbA1c (%),2,Week 2,8.05,8.34,-0.29
XYZ123-0151,Drug A 20 mg,HBA1C,HbA1c (%),4,Week 4,8.16,8.34,-0.18
XYZ123-0151,Drug A 20 mg,HBA1C,HbA1c (%),8,Week 8,8.22,8.34,-0.12
XYZ123-0151,Drug A 20 mg,HBA1C,HbA1c (%),12,Week 12,7.85,8.34,-0.49
XYZ123-0151,Drug A 20 mg,HBA1C,HbA1c (%),24,Week 24,7.8,8.34,-0.55
XYZ123-0152,Placebo,HBA1C,HbA1c (%),0,Baseline,7.59,7.59,0.0
XYZ123-0152,Placebo,HBA1C,HbA1c (%),2,Week 2,8.1,7.59,0.51
XYZ123-0152,Placebo,HBA1C,HbA1c (%),4,Week 4,7.68,7.59,0.09
XYZ123-0152,Placebo,HBA1C,HbA1c (%),8,Week 8,7.31,7.59,-0.28
XYZ123-0152,Placebo,HBA1C,HbA1c (%),12,Week 12,8.62,7.59,1.03
XYZ123-0152,Placebo,HBA1C,HbA1c (%),24,Week 24,7.45,7.59,-0.14
XYZ123-0153,Drug A 10 mg,HBA1C,HbA1c (%),0,Baseline,7.45,7.45,0.0
XYZ123-0153,Drug A 10 mg,HBA1C,HbA1c (%),2,Week 2,7.03,7.45,-0.41
XYZ123-0153,Drug A 10 mg,HBA1C,HbA1c (%),4,Week 4,6.81,7.45,-0.64
XYZ123-0153,Drug A 10 mg,HBA1C,HbA1c (%),8,Week 8,6.51,7.45,-0.94
XYZ123-0153,Drug A 10 mg,HBA1C,HbA1c (%),12,Week 12,7.57,7.45,0.13
XYZ123-0153,Drug A 10 mg,HBA1C,HbA1c (%),24,Week 24,7.15,7.45,-0.3
XYZ123-0154,Drug A 20 mg,HBA1C,HbA1c (%),0,Baseline,8.67,8.67,0.0
XYZ123-0154,Drug A 20 mg,HBA1C,HbA1c (%),2,Week 2,8.77,8.67,0.1
XYZ123-0154,Drug A 20 mg,HBA1C,HbA1c (%),4,Week 4,8.25,8.67,-0.42
XYZ123-0154,Drug A 20 mg,HBA1C,HbA1c (%),8,Week 8,7.67,8.67,-1.0
XYZ123-0154,Drug A 20 mg,HBA1C,HbA1c (%),12,Week 12,7.96,8.67,-0.71
XYZ123-0154,Drug A 20 mg,HBA1C,HbA1c (%),24,Week 24,7.7,8.67,-0.97
XYZ123-0155,Placebo,HBA1C,HbA1c (%),0,Baseline,6.28,6.28,0.0
XYZ123-0155,Placebo,HBA1C,HbA1c (%),2,Week 2,6.12,6.28,-0.16
XYZ123-0155,Placebo,HBA1C,HbA1c (%),4,Week 4,6.78,6.28,0.49
XYZ123-0155,Placebo,HBA1C,HbA1c (%),8,Week 8,6.71,6.28,0.42
XYZ123-0155,Placebo,HBA1C,HbA1c (%),12,Week 12,6.07,6.28,-0.22
XYZ123-0155,Placebo,HBA1C,HbA1c (%),24,Week 24,6.98,6.28,0.7
XYZ123-0156,Drug A 10 mg,HBA1C,HbA1c (%),0,Baseline,7.39,7.39,0.0
XYZ123-0156,Drug A 10 mg,HBA1C,HbA1c (%),2,Week 2,6.85,7.39,-0.54
XYZ123-0156,Drug A 10 mg,HBA1C,HbA1c (%),4,Week 4,7.23,7.39,-0.16
XYZ123-0156,Drug A 10 mg,HBA1C,HbA1c (%),8,Week 8,6.65,7.39,-0.74
XYZ123-0156,Drug A 10 mg,HBA1C,HbA1c (%),12,Week 12,6.7,7.39,-0.69
XYZ123-0156,Drug A 10 mg,HBA1C,HbA1c (%),24,Week 24,6.71,7.39,-0.68
XYZ123-0157,Drug A 20 mg,HBA1C,HbA1c (%),0,Baseline,7.09,7.09,0.0
XYZ123-0157,Drug A 20 mg,HBA1C,HbA1c (%),2,Week 2,6.95,7.09,-0.14
XYZ123-0157,Drug A 20 mg,HBA1C,HbA1c (%),4,Week 4,6.4,7.09,-0.7
XYZ123-0157,Drug A 20 mg,HBA1C,HbA1c (%),8,Week 8,6.57,7.09,-0.52
XYZ123-0157,Drug A 20 mg,HBA1C,HbA1c (%),12,Week 12,5.95,7.09,-1.14
XYZ123-0157,Drug A 20 mg,HBA1C,HbA1c (%),24,Week 24,6.36,7.09,-0.73
XYZ123-0158,Placebo,HBA1C,HbA1c (%),0,Baseline,6.94,6.94,0.0
XYZ123-0158,Placebo,HBA1C,HbA1c (%),2,Week 2,7.17,6.94,0.23
XYZ123-0158,Placebo,HBA1C,HbA1c (%),4,Week 4,6.44,6.94,-0.5
XYZ123-0158,Placebo,HBA1C,HbA1c (%),8,Week 8,7.97,6.94,1.03
XYZ123-0158,Placebo,HBA1C,HbA1c (%),12,Week 12,7.1,6.94,0.16
XYZ123-0158,Placebo,HBA1C,HbA1c (%),24,Week 24,6.97,6.94,0.03
XYZ123-0159,Drug A 10 mg,HBA1C,HbA1c (%),0,Baseline,8.17,8.17,0.0
XYZ123-0159,Drug A 10 mg,HBA1C,HbA1c (%),2,Week 2,7.67,8.17,-0.5
XYZ123-0159,Drug A 10 mg,HBA1C,HbA1c (%),4,Week 4,8.62,8.17,0.45
XYZ123-0159,Drug A 10 mg,HBA1C,HbA1c (%),8,Week 8,7.6,8.17,-0.57
XYZ123-0159,Drug A 10 mg,HBA1C,HbA1c (%),12,Week 12,7.26,8.17,-0.91
XYZ123-0159,Drug A 10 mg,HBA1C,HbA1c (%),24,Week 24,7.5,8.17,-0.66
XYZ123-0160,Drug A 20 mg,HBA1C,HbA1c (%),0,Baseline,7.72,7.72,0.0
XYZ123-0160,Drug A 20 mg,HBA1C,HbA1c (%),2,Week 2,7.99,7.72,0.27
XYZ123-0160,Drug A 20 mg,HBA1C,HbA1c (%),4,Week 4,7.63,7.72,-0.09
XYZ123-0160,Drug A 20 mg,HBA1C,HbA1c (%),8,Week 8,7.31,7.72,-0.41
XYZ123-0160,Drug A 20 mg,HBA1C,HbA1c (%),12,Week 12,6.83,7.72,-0.89
XYZ123-0160,Drug A 20 mg,HBA1C,HbA1c (%),24,Week 24,6.82,7.72,-0.89
XYZ123-0161,Placebo,HBA1C,HbA1c (%),0,Baseline,7.68,7.68,0.0
XYZ123-0161,Placebo,HBA1C,HbA1c (%),2,Week 2,7.73,7.68,0.06
XYZ123-0161,Placebo,HBA1C,HbA1c (%),4,Week 4,7.65,7.68,-0.03
XYZ123-0161,Placebo,HBA1C,HbA1c (%),8,Week 8,7.53,7.68,-0.15
XYZ123-0161,Placebo,HBA1C,HbA1c (%),12,Week 12,7.52,7.68,-0.16
XYZ123-0161,Placebo,HBA1C,HbA1c (%),24,Week 24,7.35,7.68,-0.33
XYZ123-0162,Drug A 10 mg,HBA1C,HbA1c (%),0,Baseline,7.38,7.38,0.0
XYZ123-0162,Drug A 10 mg,HBA1C,HbA1c (%),2,Week 2,7.72,7.38,0.34
XYZ123-0162,Drug A 10 mg,HBA1C,HbA1c (%),4,Week 4,7.03,7.38,-0.34
XYZ123-0162,Drug A 10 mg,HBA1C,HbA1c (%),8,Week 8,6.51,7.38,-0.87
XYZ123-0162,Drug A 10 mg,HBA1C,HbA1c (%),12,Week 12,7.74,7.38,0.37
XYZ123-0162,Drug A 10 mg,HBA1C,HbA1c (%),24,Week 24,7.19,7.38,-0.19
XYZ123-0163,Drug A 20 mg,HBA1C,HbA1c (%),0,Baseline,8.26,8.26,0.0
XYZ123-0163,Drug A 20 mg,HBA1C,HbA1c (%),2,Week 2,7.93,8.26,-0.32
XYZ123-0163,Drug A 20 mg,HBA1C,HbA1c (%),4,Week 4,8.19,8.26,-0.06
XYZ123-0163,Drug A 20 mg,HBA1C,HbA1c (%),8,Week 8,7.49,8.26,-0.76
XYZ123-0163,Drug A 20 mg,HBA1C,HbA1c (%),12,Week 12,7.33,8.26,-0.93
XYZ123-0163,Drug A 20 mg,HBA1C,HbA1c (%),24,Week 24,7.7,8.26,-0.56
XYZ123-0164,Placebo,HBA1C,HbA1c (%),0,Baseline,7.28,7.28,0.0
XYZ123-0164,Placebo,HBA1C,HbA1c (%),2,Week 2,7.69,7.28,0.41
XYZ123-0164,Placebo,HBA1C,HbA1c (%),4,Week 4,6.88,7.28,-0.4
XYZ123-0164,Placebo,HBA1C,HbA1c (%),8,Week 8,6.88,7.28,-0.4
XYZ123-0164,Placebo,HBA1C,HbA1c (%),12,Week 12,7.19,7.28,-0.09
XYZ123-0164,Placebo,HBA1C,HbA1c (%),24,Week 24,7.07,7.28,-0.21
XYZ123-0165,Drug A 10 mg,HBA1C,HbA1c (%),0,Baseline,8.62,8.62,0.0
XYZ123-0165,Drug A 10 mg,HBA1C,HbA1c (%),2,Week 2,8.64,8.62,0.02
XYZ123-0165,Drug A 10 mg,HBA1C,HbA1c (%),4,Week 4,8.49,8.62,-0.13
XYZ123-0165,Drug A 10 mg,HBA1C,HbA1c (%),8,Week 8,8.02,8.62,-0.6
XYZ123-0165,Drug A 10 mg,HBA1C,HbA1c (%),12,Week 12,7.94,8.62,-0.68
XYZ123-0165,Drug A 10 mg,HBA1C,HbA1c (%),24,Week 24,7.91,8.62,-0.71
XYZ123-0166,Drug A 20 mg,HBA1C,HbA1c (%),0,Baseline,8.54,8.54,0.0
XYZ123-0166,Drug A 20 mg,HBA1C,HbA1c (%),2,Week 2,8.56,8.54,0.02
XYZ123-0166,Drug A 20 mg,HBA1C,HbA1c (%),4,Week 4,7.89,8.54,-0.65
XYZ123-0166,Drug A 20 mg,HBA1C,HbA1c (%),8,Week 8,8.57,8.54,0.03
XYZ123-0166,Drug A 20 mg,HBA1C,HbA1c (%),12,Week 12,7.7,8.54,-0.85
XYZ123-0166,Drug A 20 mg,HBA1C,HbA1c (%),24,Week 24,7.43,8.54,-1.11
XYZ123-0167,Placebo,HBA1C,HbA1c (%),0,Baseline,7.18,7.18,0.0
XYZ123-0167,Placebo,HBA1C,HbA1c (%),2,Week 2,6.7,7.18,-0.48
XYZ123-0167,Placebo,HBA1C,HbA1c (%),4,Week 4,6.52,7.18,-0.66
XYZ123-0167,Placebo,HBA1C,HbA1c (%),8,Week 8,6.84,7.18,-0.34
XYZ123-0167,Placebo,HBA1C,HbA1c (%),12,Week 12,7.44,7.18,0.25
XYZ123-0167,Placebo,HBA1C,HbA1c (%),24,Week 24,7.33,7.18,0.14
XYZ123-0168,Drug A 10 mg,HBA1C,HbA1c (%),0,Baseline,7.37,7.37,0.0
XYZ123-0168,Drug A 10 mg,HBA1C,HbA1c (%),2,Week 2,7.99,7.37,0.61
XYZ123-0168,Drug A 10 mg,HBA1C,HbA1c (%),4,Week 4,6.86,7.37,-0.51
XYZ123-0168,Drug A 10 mg,HBA1C,HbA1c (%),8,Week 8,6.96,7.37,-0.42
XYZ123-0168,Drug A 10 mg,HBA1C,HbA1c (%),12,Week 12,6.72,7.37,-0.65
XYZ123-0168,Drug A 10 mg,HBA1C,HbA1c (%),24,Week 24,7.25,7.37,-0.12
XYZ123-0169,Drug A 20 mg,HBA1C,HbA1c (%),0,Baseline,8.58,8.58,0.0
XYZ123-0169,Drug A 20 mg,HBA1C,HbA1c (%),2,Week 2,7.81,8.58,-0.78
XYZ123-0169,Drug A 20 mg,HBA1C,HbA1c (%),4,Week 4,8.28,8.58,-0.3
XYZ123-0169,Drug A 20 mg,HBA1C,HbA1c (%),8,Week 8,7.38,8.58,-1.2
XYZ123-0169,Drug A 20 mg,HBA1C,HbA1c (%),12,Week 12,7.69,8.58,-0.89
XYZ123-0169,Drug A 20 mg,HBA1C,HbA1c (%),24,Week 24,7.46,8.58,-1.12
XYZ123-0170,Placebo,HBA1C,HbA1c (%),0,Baseline,8.88,8.88,0.0
XYZ123-0170,Placebo,HBA1C,HbA1c (%),2,Week 2,8.84,8.88,-0.04
XYZ123-0170,Placebo,HBA1C,HbA1c (%),4,Week 4,8.63,8.88,-0.25
XYZ123-0170,Placebo,HBA1C,HbA1c (%),8,Week 8,8.93,8.88,0.05
XYZ123-0170,Placebo,HBA1C,HbA1c (%),12,Week 12,9.1,8.88,0.22
XYZ123-0170,Placebo,HBA1C,HbA1c (%),24,Week 24,8.84,8.88,-0.04
XYZ123-0171,Drug A 10 mg,HBA1C,HbA1c (%),0,Baseline,8.59,8.59,0.0
XYZ123-0171,Drug A 10 mg,HBA1C,HbA1c (%),2,Week 2,8.55,8.59,-0.03
XYZ123-0171,Drug A 10 mg,HBA1C,HbA1c (%),4,Week 4,8.31,8.59,-0.28
XYZ123-0171,Drug A 10 mg,HBA1C,HbA1c (%),8,Week 8,8.54,8.59,-0.05
XYZ123-0171,Drug A 10 mg,HBA1C,HbA1c (%),12,Week 12,7.62,8.59,-0.97
XYZ123-0171,Drug A 10 mg,HBA1C,HbA1c (%),24,Week 24,8.31,8.59,-0.28
XYZ123-0172,Drug A 20 mg,HBA1C,HbA1c (%),0,Baseline,7.82,7.82,0.0
XYZ123-0172,Drug A 20 mg,HBA1C,HbA1c (%),2,Week 2,8.06,7.82,0.24
XYZ123-0172,Drug A 20 mg,HBA1C,HbA1c (%),4,Week 4,7.65,7.82,-0.16
XYZ123-0172,Drug A 20 mg,HBA1C,HbA1c (%),8,Week 8,7.17,7.82,-0.64
XYZ123-0172,Drug A 20 mg,HBA1C,HbA1c (%),12,Week 12,6.84,7.82,-0.98
XYZ123-0172,Drug A 20 mg,HBA1C,HbA1c (%),24,Week 24,7.45,7.82,-0.37
XYZ123-0173,Placebo,HBA1C,HbA1c (%),0,Baseline,8.23,8.23,0.0
XYZ123-0173,Placebo,HBA1C,HbA1c (%),2,Week 2,8.9,8.23,0.67
XYZ123-0173,Placebo,HBA1C,HbA1c (%),4,Week 4,7.72,8.23,-0.51
XYZ123-0173,Placebo,HBA1C,HbA1c (%),8,Week 8,7.99,8.23,-0.24
XYZ123-0173,Placebo,HBA1C,HbA1c (%),12,Week 12,8.05,8.23,-0.18
XYZ123-0173,Placebo,HBA1C,HbA1c (%),24,Week 24,8.02,8.23,-0.21
XYZ123-0174,Drug A 10 mg,HBA1C,HbA1c (%),0,Baseline,7.7,7.7,0.0
XYZ123-0174,Drug A 10 mg,HBA1C,HbA1c (%),2,Week 2,8.02,7.7,0.32
XYZ123-0174,Drug A 10 mg,HBA1C,HbA1c (%),4,Week 4,7.85,7.7,0.15
XYZ123-0174,Drug A 10 mg,HBA1C,HbA1c (%),8,Week 8,6.62,7.7,-1.08
XYZ123-0174,Drug A 10 mg,HBA1C,HbA1c (%),12,Week 12,7.23,7.7,-0.47
XYZ123-0174,Drug A 10 mg,HBA1C,HbA1c (%),24,Week 24,8.13,7.7,0.43
XYZ123-0175,Drug A 20 mg,HBA1C,HbA1c (%),0,Baseline,7.41,7.41,0.0
XYZ123-0175,Drug A 20 mg,HBA1C,HbA1c (%),2,Week 2,7.06,7.41,-0.35
XYZ123-0175,Drug A 20 mg,HBA1C,HbA1c (%),4,Week 4,7.26,7.41,-0.15
XYZ123-0175,Drug A 20 mg,HBA1C,HbA1c (%),8,Week 8,6.75,7.41,-0.66
XYZ123-0175,Drug A 20 mg,HBA1C,HbA1c (%),12,Week 12,6.43,7.41,-0.98
XYZ123-0175,Drug A 20 mg,HBA1C,HbA1c (%),24,Week 24,7.15,7.41,-0.26
XYZ123-0176,Placebo,HBA1C,HbA1c (%),0,Baseline,7.58,7.58,0.0
XYZ123-0176,Placebo,HBA1C,HbA1c (%),2,Week 2,6.53,7.58,-1.05
XYZ123-0176,Placebo,HBA1C,HbA1c (%),4,Week 4,7.64,7.58,0.06
XYZ123-0176,Placebo,HBA1C,HbA1c (%),8,Week 8,7.59,7.58,0.01
XYZ123-0176,Placebo,HBA1C,HbA1c (%),12,Week 12,6.92,7.58,-0.66
XYZ123-0176,Placebo,HBA1C,HbA1c (%),24,Week 24,7.67,7.58,0.1
XYZ123-0177,Drug A 10 mg,HBA1C,HbA1c (%),0,Baseline,8.36,8.36,0.0
XYZ123-0177,Drug A 10 mg,HBA1C,HbA1c (%),2,Week 2,8.68,8.36,0.32
XYZ123-0177,Drug A 10 mg,HBA1C,HbA1c (%),4,Week 4,8.05,8.36,-0.31
XYZ123-0177,Drug A 10 mg,HBA1C,HbA1c (%),8,Week 8,7.63,8.36,-0.73
XYZ123-0177,Drug A 10 mg,HBA1C,HbA1c (%),12,Week 12,8.38,8.36,0.02
XYZ123-0177,Drug A 10 mg,HBA1C,HbA1c (%),24,Week 24,8.09,8.36,-0.27
XYZ123-0178,Drug A 20 mg,HBA1C,HbA1c (%),0,Baseline,7.33,7.33,0.0
XYZ123-0178,Drug A 20 mg,HBA1C,HbA1c (%),2,Week 2,7.18,7.33,-0.15
XYZ123-0178,Drug A 20 mg,HBA1C,HbA1c (%),4,Week 4,6.76,7.33,-0.57
XYZ123-0178,Drug A 20 mg,HBA1C,HbA1c (%),8,Week 8,7.17,7.33,-0.16
XYZ123-0178,Drug A 20 mg,HBA1C,HbA1c (%),12,Week 12,6.21,7.33,-1.12
XYZ123-0178,Drug A 20 mg,HBA1C,HbA1c (%),24,Week 24,6.81,7.33,-0.51
XYZ123-0179,Placebo,HBA1C,HbA1c (%),0,Baseline,6.99,6.99,0.0
XYZ123-0179,Placebo,HBA1C,HbA1c (%),2,Week 2,7.08,6.99,0.09
XYZ123-0179,Placebo,HBA1C,HbA1c (%),4,Week 4,6.76,6.99,-0.23
XYZ123-0179,Placebo,HBA1C,HbA1c (%),8,Week 8,6.54,6.99,-0.45
XYZ123-0179,Placebo,HBA1C,HbA1c (%),12,Week 12,7.06,6.99,0.07
XYZ123-0179,Placebo,HBA1C,HbA1c (%),24,Week 24,6.59,6.99,-0.4
XYZ123-0180,Drug A 10 mg,HBA1C,HbA1c (%),0,Baseline,7.28,7.28,0.0
XYZ123-0180,Drug A 10 mg,HBA1C,HbA1c (%),2,Week 2,7.0,7.28,-0.28
XYZ123-0180,Drug A 10 mg,HBA1C,HbA1c (%),4,Week 4,6.88,7.28,-0.4
XYZ123-0180,Drug A 10 mg,HBA1C,HbA1c (%),8,Week 8,6.53,7.28,-0.75
XYZ123-0180,Drug A 10 mg,HBA1C,HbA1c (%),12,Week 12,6.0,7.28,-1.28
XYZ123-0180,Drug A 10 mg,HBA1C,HbA1c (%),24,Week 24,6.86,7.28,-0.42
XYZ123-0181,Drug A 20 mg,HBA1C,HbA1c (%),0,Baseline,6.9,6.9,0.0
XYZ123-0181,Drug A 20 mg,HBA1C,HbA1c (%),2,Week 2,7.0,6.9,0.1
XYZ123-0181,Drug A 20 mg,HBA1C,HbA1c (%),4,Week 4,6.22,6.9,-0.68
XYZ123-0181,Drug A 20 mg,HBA1C,HbA1c (%),8,Week 8,6.76,6.9,-0.14
XYZ123-0181,Drug A 20 mg,HBA1C,HbA1c (%),12,Week 12,5.86,6.9,-1.04
XYZ123-0181,Drug A 20 mg,HBA1C,HbA1c (%),24,Week 24,5.82,6.9,-1.08
XYZ123-0182,Placebo,HBA1C,HbA1c (%),0,Baseline,8.63,8.63,0.0
XYZ123-0182,Placebo,HBA1C,HbA1c (%),2,Week 2,8.3,8.63,-0.33
XYZ123-0182,Placebo,HBA1C,HbA1c (%),4,Week 4,8.34,8.63,-0.29
XYZ123-0182,Placebo,HBA1C,HbA1c (%),8,Week 8,8.25,8.63,-0.38
XYZ123-0182,Placebo,HBA1C,HbA1c (%),12,Week 12,7.99,8.63,-0.64
XYZ123-0182,Placebo,HBA1C,HbA1c (%),24,Week 24,8.39,8.63,-0.24
XYZ123-0183,Drug A 10 mg,HBA1C,HbA1c (%),0,Baseline,8.2,8.2,0.0
XYZ123-0183,Drug A 10 mg,HBA1C,HbA1c (%),2,Week 2,8.66,8.2,0.46
XYZ123-0183,Drug A 10 mg,HBA1C,HbA1c (%),4,Week 4,8.28,8.2,0.08
XYZ123-0183,Drug A 10 mg,HBA1C,HbA1c (%),8,Week 8,7.53,8.2,-0.67
XYZ123-0183,Drug A 10 mg,HBA1C,HbA1c (%),12,Week 12,7.33,8.2,-0.87
XYZ123-0183,Drug A 10 mg,HBA1C,HbA1c (%),24,Week 24,7.62,8.2,-0.58
XYZ123-0184,Drug A 20 mg,HBA1C,HbA1c (%),0,Baseline,8.19,8.19,0.0
XYZ123-0184,Drug A 20 mg,HBA1C,HbA1c (%),2,Week 2,8.1,8.19,-0.09
XYZ123-0184,Drug A 20 mg,HBA1C,HbA1c (%),4,Week 4,8.34,8.19,0.15
XYZ123-0184,Drug A 20 mg,HBA1C,HbA1c (%),8,Week 8,7.62,8.19,-0.56
XYZ123-0184,Drug A 20 mg,HBA1C,HbA1c (%),12,Week 12,6.67,8.19,-1.52
XYZ123-0184,Drug A 20 mg,HBA1C,HbA1c (%),24,Week 24,7.52,8.19,-0.67
XYZ123-0185,Placebo,HBA1C,HbA1c (%),0,Baseline,7.52,7.52,0.0
XYZ123-0185,Placebo,HBA1C,HbA1c (%),2,Week 2,7.76,7.52,0.24
XYZ123-0185,Placebo,HBA1C,HbA1c (%),4,Week 4,8.11,7.52,0.59
XYZ123-0185,Placebo,HBA1C,HbA1c (%),8,Week 8,7.62,7.52,0.1
XYZ123-0185,Placebo,HBA1C,HbA1c (%),12,Week 12,6.48,7.52,-1.04
XYZ123-0185,Placebo,HBA1C,HbA1c (%),24,Week 24,7.62,7.52,0.1
XYZ123-0186,Drug A 10 mg,HBA1C,HbA1c (%),0,Baseline,7.67,7.67,0.0
XYZ123-0186,Drug A 10 mg,HBA1C,HbA1c (%),2,Week 2,7.53,7.67,-0.14
XYZ123-0186,Drug A 10 mg,HBA1C,HbA1c (%),4,Week 4,8.16,7.67,0.49
XYZ123-0186,Drug A 10 mg,HBA1C,HbA1c (%),8,Week 8,7.17,7.67,-0.5
XYZ123-0186,Drug A 10 mg,HBA1C,HbA1c (%),12,Week 12,6.68,7.67,-1.0
XYZ123-0186,Drug A 10 mg,HBA1C,HbA1c (%),24,Week 24,6.85,7.67,-0.83
XYZ123-0187,Drug A 20 mg,HBA1C,HbA1c (%),0,Baseline,7.48,7.48,0.0
XYZ123-0187,Drug A 20 mg,HBA1C,HbA1c (%),2,Week 2,7.29,7.48,-0.19
XYZ123-0187,Drug A 20 mg,HBA1C,HbA1c (%),4,Week 4,7.52,7.48,0.04
XYZ123-0187,Drug A 20 mg,HBA1C,HbA1c (%),8,Week 8,7.09,7.48,-0.39
XYZ123-0187,Drug A 20 mg,HBA1C,HbA1c (%),12,Week 12,6.84,7.48,-0.64
XYZ123-0187,Drug A 20 mg,HBA1C,HbA1c (%),24,Week 24,6.42,7.48,-1.06
XYZ123-0188,Placebo,HBA1C,HbA1c (%),0,Baseline,7.99,7.99,0.0
XYZ123-0188,Placebo,HBA1C,HbA1c (%),2,Week 2,7.84,7.99,-0.15
XYZ123-0188,Placebo,HBA1C,HbA1c (%),4,Week 4,7.59,7.99,-0.4
XYZ123-0188,Placebo,HBA1C,HbA1c (%),8,Week 8,7.74,7.99,-0.25
XYZ123-0188,Placebo,HBA1C,HbA1c (%),12,Week 12,7.67,7.99,-0.33
XYZ123-0188,Placebo,HBA1C,HbA1c (%),24,Week 24,7.87,7.99,-0.12
XYZ123-0189,Drug A 10 mg,HBA1C,HbA1c (%),0,Baseline,8.49,8.49,0.0
XYZ123-0189,Drug A 10 mg,HBA1C,HbA1c (%),2,Week 2,8.36,8.49,-0.13
XYZ123-0189,Drug A 10 mg,HBA1C,HbA1c (%),4,Week 4,8.15,8.49,-0.34
XYZ123-0189,Drug A 10 mg,HBA1C,HbA1c (%),8,Week 8,8.46,8.49,-0.03
XYZ123-0189,Drug A 10 mg,HBA1C,HbA1c (%),12,Week 12,7.99,8.49,-0.5
XYZ123-0189,Drug A 10 mg,HBA1C,HbA1c (%),24,Week 24,8.0,8.49,-0.48
XYZ123-0190,Drug A 20 mg,HBA1C,HbA1c (%),0,Baseline,8.82,8.82,0.0
XYZ123-0190,Drug A 20 mg,HBA1C,HbA1c (%),2,Week 2,8.62,8.82,-0.2
XYZ123-0190,Drug A 20 mg,HBA1C,HbA1c (%),4,Week 4,7.79,8.82,-1.03
XYZ123-0190,Drug A 20 mg,HBA1C,HbA1c (%),8,Week 8,7.98,8.82,-0.84
XYZ123-0190,Drug A 20 mg,HBA1C,HbA1c (%),12,Week 12,7.67,8.82,-1.15
XYZ123-0190,Drug A 20 mg,HBA1C,HbA1c (%),24,Week 24,7.95,8.82,-0.87
XYZ123-0191,Placebo,HBA1C,HbA1c (%),0,Baseline,7.94,7.94,0.0
XYZ123-0191,Placebo,HBA1C,HbA1c (%),2,Week 2,7.64,7.94,-0.3
XYZ123-0191,Placebo,HBA1C,HbA1c (%),4,Week 4,8.11,7.94,0.17
XYZ123-0191,Placebo,HBA1C,HbA1c (%),8,Week 8,7.46,7.94,-0.47
XYZ123-0191,Placebo,HBA1C,HbA1c (%),12,Week 12,7.65,7.94,-0.29
XYZ123-0191,Placebo,HBA1C,HbA1c (%),24,Week 24,7.95,7.94,0.01
XYZ123-0192,Drug A 10 mg,HBA1C,HbA1c (%),0,Baseline,7.88,7.88,0.0
XYZ123-0192,Drug A 10 mg,HBA1C,HbA1c (%),2,Week 2,7.96,7.88,0.07
XYZ123-0192,Drug A 10 mg,HBA1C,HbA1c (%),4,Week 4,7.61,7.88,-0.27
XYZ123-0192,Drug A 10 mg,HBA1C,HbA1c (%),8,Week 8,7.71,7.88,-0.17
XYZ123-0192,Drug A 10 mg,HBA1C,HbA1c (%),12,Week 12,7.2,7.88,-0.68
XYZ123-0192,Drug A 10 mg,HBA1C,HbA1c (%),24,Week 24,7.42,7.88,-0.47
XYZ123-0193,Drug A 20 mg,HBA1C,HbA1c (%),0,Baseline,6.95,6.95,0.0
XYZ123-0193,Drug A 20 mg,HBA1C,HbA1c (%),2,Week 2,6.77,6.95,-0.18
XYZ123-0193,Drug A 20 mg,HBA1C,HbA1c (%),4,Week 4,6.34,6.95,-0.6
XYZ123-0193,Drug A 20 mg,HBA1C,HbA1c (%),8,Week 8,5.49,6.95,-1.45
XYZ123-0193,Drug A 20 mg,HBA1C,HbA1c (%),12,Week 12,6.13,6.95,-0.82
XYZ123-0193,Drug A 20 mg,HBA1C,HbA1c (%),24,Week 24,5.77,6.95,-1.17
XYZ123-0194,Placebo,HBA1C,HbA1c (%),0,Baseline,7.46,7.46,0.0
XYZ123-0194,Placebo,HBA1C,HbA1c (%),2,Week 2,7.83,7.46,0.37
XYZ123-0194,Placebo,HBA1C,HbA1c (%),4,Week 4,6.89,7.46,-0.57
XYZ123-0194,Placebo,HBA1C,HbA1c (%),8,Week 8,7.81,7.46,0.35
XYZ123-0194,Placebo,HBA1C,HbA1c (%),12,Week 12,6.41,7.46,-1.05
XYZ123-0194,Placebo,HBA1C,HbA1c (%),24,Week 24,7.53,7.46,0.07
XYZ123-0195,Drug A 10 mg,HBA1C,HbA1c (%),0,Baseline,7.71,7.71,0.0
XYZ123-0195,Drug A 10 mg,HBA1C,HbA1c (%),2,Week 2,7.32,7.71,-0.39
XYZ123-0195,Drug A 10 mg,HBA1C,HbA1c (%),4,Week 4,7.72,7.71,0.01
XYZ123-0195,Drug A 10 mg,HBA1C,HbA1c (%),8,Week 8,7.57,7.71,-0.14
XYZ123-0195,Drug A 10 mg,HBA1C,HbA1c (%),12,Week 12,7.7,7.71,-0.01
XYZ123-0195,Drug A 10 mg,HBA1C,HbA1c (%),24,Week 24,7.38,7.71,-0.33
XYZ123-0196,Drug A 20 mg,HBA1C,HbA1c (%),0,Baseline,6.93,6.93,0.0
XYZ123-0196,Drug A 20 mg,HBA1C,HbA1c (%),2,Week 2,7.18,6.93,0.25
XYZ123-0196,Drug A 20 mg,HBA1C,HbA1c (%),4,Week 4,6.95,6.93,0.02
XYZ123-0196,Drug A 20 mg,HBA1C,HbA1c (%),8,Week 8,6.3,6.93,-0.63
XYZ123-0196,Drug A 20 mg,HBA1C,HbA1c (%),12,Week 12,6.1,6.93,-0.83
XYZ123-0196,Drug A 20 mg,HBA1C,HbA1c (%),24,Week 24,6.77,6.93,-0.15
XYZ123-0197,Placebo,HBA1C,HbA1c (%),0,Baseline,7.87,7.87,0.0
XYZ123-0197,Placebo,HBA1C,HbA1c (%),2,Week 2,7.75,7.87,-0.12
XYZ123-0197,Placebo,HBA1C,HbA1c (%),4,Week 4,7.79,7.87,-0.08
XYZ123-0197,Placebo,HBA1C,HbA1c (%),8,Week 8,7.61,7.87,-0.26
XYZ123-0197,Placebo,HBA1C,HbA1c (%),12,Week 12,7.96,7.87,0.09
XYZ123-0197,Placebo,HBA1C,HbA1c (%),24,Week 24,7.47,7.87,-0.4
XYZ123-0198,Drug A 10 mg,HBA1C,HbA1c (%),0,Baseline,6.89,6.89,0.0
XYZ123-0198,Drug A 10 mg,HBA1C,HbA1c (%),2,Week 2,7.56,6.89,0.67
XYZ123-0198,Drug A 10 mg,HBA1C,HbA1c (%),4,Week 4,6.52,6.89,-0.37
XYZ123-0198,Drug A 10 mg,HBA1C,HbA1c (%),8,Week 8,6.31,6.89,-0.58
XYZ123-0198,Drug A 10 mg,HBA1C,HbA1c (%),12,Week 12,6.96,6.89,0.07
XYZ123-0198,Drug A 10 mg,HBA1C,HbA1c (%),24,Week 24,6.37,6.89,-0.53
XYZ123-0199,Drug A 20 mg,HBA1C,HbA1c (%),0,Baseline,7.54,7.54,0.0
XYZ123-0199,Drug A 20 mg,HBA1C,HbA1c (%),2,Week 2,7.68,7.54,0.15
XYZ123-0199,Drug A 20 mg,HBA1C,HbA1c (%),4,Week 4,6.95,7.54,-0.58
XYZ123-0199,Drug A 20 mg,HBA1C,HbA1c (%),8,Week 8,7.46,7.54,-0.07
XYZ123-0199,Drug A 20 mg,HBA1C,HbA1c (%),12,Week 12,6.56,7.54,-0.97
XYZ123-0199,Drug A 20 mg,HBA1C,HbA1c (%),24,Week 24,6.41,7.54,-1.13
XYZ123-0200,Placebo,HBA1C,HbA1c (%),0,Baseline,8.76,8.76,0.0
XYZ123-0200,Placebo,HBA1C,HbA1c (%),2,Week 2,8.92,8.76,0.16
XYZ123-0200,Placebo,HBA1C,HbA1c (%),4,Week 4,9.06,8.76,0.3
XYZ123-0200,Placebo,HBA1C,HbA1c (%),8,Week 8,9.14,8.76,0.38
XYZ123-0200,Placebo,HBA1C,HbA1c (%),12,Week 12,8.64,8.76,-0.12
XYZ123-0200,Placebo,HBA1C,HbA1c (%),24,Week 24,9.29,8.76,0.53
XYZ123-0201,Drug A 10 mg,HBA1C,HbA1c (%),0,Baseline,7.33,7.33,0.0
XYZ123-0201,Drug A 10 mg,HBA1C,HbA1c (%),2,Week 2,7.22,7.33,-0.1
XYZ123-0201,Drug A 10 mg,HBA1C,HbA1c (%),4,Week 4,8.22,7.33,0.89
XYZ123-0201,Drug A 10 mg,HBA1C,HbA1c (%),8,Week 8,6.93,7.33,-0.4
XYZ123-0201,Drug A 10 mg,HBA1C,HbA1c (%),12,Week 12,6.99,7.33,-0.34
XYZ123-0201,Drug A 10 mg,HBA1C,HbA1c (%),24,Week 24,6.34,7.33,-0.99
XYZ123-0202,Drug A 20 mg,HBA1C,HbA1c (%),0,Baseline,7.55,7.55,0.0
XYZ123-0202,Drug A 20 mg,HBA1C,HbA1c (%),2,Week 2,7.27,7.55,-0.28
XYZ123-0202,Drug A 20 mg,HBA1C,HbA1c (%),4,Week 4,6.96,7.55,-0.59
XYZ123-0202,Drug A 20 mg,HBA1C,HbA1c (%),8,Week 8,7.07,7.55,-0.49
XYZ123-0202,Drug A 20 mg,HBA1C,HbA1c (%),12,Week 12,6.86,7.55,-0.69
XYZ123-0202,Drug A 20 mg,HBA1C,HbA1c (%),24,Week 24,6.44,7.55,-1.12
XYZ123-0203,Placebo,HBA1C,HbA1c (%),0,Baseline,7.7,7.7,0.0
XYZ123-0203,Placebo,HBA1C,HbA1c (%),2,Week 2,8.19,7.7,0.49
XYZ123-0203,Placebo,HBA1C,HbA1c (%),4,Week 4,8.44,7.7,0.75
XYZ123-0203,Placebo,HBA1C,HbA1c (%),8,Week 8,8.06,7.7,0.36
XYZ123-0203,Placebo,HBA1C,HbA1c (%),12,Week 12,6.91,7.7,-0.79
XYZ123-0203,Placebo,HBA1C,HbA1c (%),24,Week 24,7.3,7.7,-0.4
XYZ123-0204,Drug A 10 mg,HBA1C,HbA1c (%),0,Baseline,8.1,8.1,0.0
XYZ123-0204,Drug A 10 mg,HBA1C,HbA1c (%),2,Week 2,8.45,8.1,0.35
XYZ123-0204,Drug A 10 mg,HBA1C,HbA1c (%),4,Week 4,8.28,8.1,0.18
XYZ123-0204,Drug A 10 mg,HBA1C,HbA1c (%),8,Week 8,8.35,8.1,0.24
XYZ123-0204,Drug A 10 mg,HBA1C,HbA1c (%),12,Week 12,7.64,8.1,-0.46
XYZ123-0204,Drug A 10 mg,HBA1C,HbA1c (%),24,Week 24,7.45,8.1,-0.65
XYZ123-0205,Drug A 20 mg,HBA1C,HbA1c (%),0,Baseline,8.13,8.13,0.0
XYZ123-0205,Drug A 20 mg,HBA1C,HbA1c (%),2,Week 2,8.1,8.13,-0.03
XYZ123-0205,Drug A 20 mg,HBA1C,HbA1c (%),4,Week 4,7.6,8.13,-0.53
XYZ123-0205,Drug A 20 mg,HBA1C,HbA1c (%),8,Week 8,7.45,8.13,-0.68
XYZ123-0205,Drug A 20 mg,HBA1C,HbA1c (%),12,Week 12,7.01,8.13,-1.12
XYZ123-0205,Drug A 20 mg,HBA1C,HbA1c (%),24,Week 24,6.91,8.13,-1.21
XYZ123-0206,Placebo,HBA1C,HbA1c (%),0,Baseline,7.51,7.51,0.0
XYZ123-0206,Placebo,HBA1C,HbA1c (%),2,Week 2,7.88,7.51,0.37
XYZ123-0206,Placebo,HBA1C,HbA1c (%),4,Week 4,7.21,7.51,-0.29
XYZ123-0206,Placebo,HBA1C,HbA1c (%),8,Week 8,7.61,7.51,0.11
XYZ123-0206,Placebo,HBA1C,HbA1c (%),12,Week 12,7.44,7.51,-0.07
XYZ123-0206,Placebo,HBA1C,HbA1c (%),24,Week 24,6.45,7.51,-1.06
XYZ123-0207,Drug A 10 mg,HBA1C,HbA1c (%),0,Baseline,8.24,8.24,0.0
XYZ123-0207,Drug A 10 mg,HBA1C,HbA1c (%),2,Week 2,7.83,8.24,-0.4
XYZ123-0207,Drug A 10 mg,HBA1C,HbA1c (%),4,Week 4,8.28,8.24,0.04
XYZ123-0207,Drug A 10 mg,HBA1C,HbA1c (%),8,Week 8,8.05,8.24,-0.19
XYZ123-0207,Drug A 10 mg,HBA1C,HbA1c (%),12,Week 12,7.25,8.24,-0.99
XYZ123-0207,Drug A 10 mg,HBA1C,HbA1c (%),24,Week 24,7.42,8.24,-0.82
XYZ123-0208,Drug A 20 mg,HBA1C,HbA1c (%),0,Baseline,7.6,7.6,0.0
XYZ123-0208,Drug A 20 mg,HBA1C,HbA1c (%),2,Week 2,7.68,7.6,0.08
XYZ123-0208,Drug A 20 mg,HBA1C,HbA1c (%),4,Week 4,7.86,7.6,0.26
XYZ123-0208,Drug A 20 mg,HBA1C,HbA1c (%),8,Week 8,7.12,7.6,-0.47
XYZ123-0208,Drug A 20 mg,HBA1C,HbA1c (%),12,Week 12,6.84,7.6,-0.75
XYZ123-0208,Drug A 20 mg,HBA1C,HbA1c (%),24,Week 24,7.08,7.6,-0.51
XYZ123-0209,Placebo,HBA1C,HbA1c (%),0,Baseline,7.39,7.39,0.0
XYZ123-0209,Placebo,HBA1C,HbA1c (%),2,Week 2,7.46,7.39,0.07
XYZ123-0209,Placebo,HBA1C,HbA1c (%),4,Week 4,6.79,7.39,-0.6
XYZ123-0209,Placebo,HBA1C,HbA1c (%),8,Week 8,7.64,7.39,0.24
XYZ123-0209,Placebo,HBA1C,HbA1c (%),12,Week 12,7.1,7.39,-0.29
XYZ123-0209,Placebo,HBA1C,HbA1c (%),24,Week 24,7.66,7.39,0.26
XYZ123-0210,Drug A 10 mg,HBA1C,HbA1c (%),0,Baseline,8.21,8.21,0.0
XYZ123-0210,Drug A 10 mg,HBA1C,HbA1c (%),2,Week 2,8.12,8.21,-0.08
XYZ123-0210,Drug A 10 mg,HBA1C,HbA1c (%),4,Week 4,8.52,8.21,0.32
XYZ123-0210,Drug A 10 mg,HBA1C,HbA1c (%),8,Week 8,7.96,8.21,-0.25
XYZ123-0210,Drug A 10 mg,HBA1C,HbA1c (%),12,Week 12,7.77,8.21,-0.44
XYZ123-0210,Drug A 10 mg,HBA1C,HbA1c (%),24,Week 24,7.73,8.21,-0.48
XYZ123-0211,Drug A 20 mg,HBA1C,HbA1c (%),0,Baseline,6.92,6.92,0.0
XYZ123-0211,Drug A 20 mg,HBA1C,HbA1c (%),2,Week 2,7.63,6.92,0.71
XYZ123-0211,Drug A 20 mg,HBA1C,HbA1c (%),4,Week 4,6.81,6.92,-0.11
XYZ123-0211,Drug A 20 mg,HBA1C,HbA1c (%),8,Week 8,6.27,6.92,-0.65
XYZ123-0211,Drug A 20 mg,HBA1C,HbA1c (%),12,Week 12,6.98,6.92,0.06
XYZ123-0211,Drug A 20 mg,HBA1C,HbA1c (%),24,Week 24,6.51,6.92,-0.4
XYZ123-0212,Placebo,HBA1C,HbA1c (%),0,Baseline,6.81,6.81,0.0
XYZ123-0212,Placebo,HBA1C,HbA1c (%),2,Week 2,7.5,6.81,0.69
XYZ123-0212,Placebo,HBA1C,HbA1c (%),4,Week 4,6.98,6.81,0.17
XYZ123-0212,Placebo,HBA1C,HbA1c (%),8,Week 8,7.04,6.81,0.23
XYZ123-0212,Placebo,HBA1C,HbA1c (%),12,Week 12,6.37,6.81,-0.44
XYZ123-0212,Placebo,HBA1C,HbA1c (%),24,Week 24,7.11,6.81,0.3
XYZ123-0213,Drug A 10 mg,HBA1C,HbA1c (%),0,Baseline,7.2,7.2,0.0
XYZ123-0213,Drug A 10 mg,HBA1C,HbA1c (%),2,Week 2,7.6,7.2,0.4
XYZ123-0213,Drug A 10 mg,HBA1C,HbA1c (%),4,Week 4,7.06,7.2,-0.14
XYZ123-0213,Drug A 10 mg,HBA1C,HbA1c (%),8,Week 8,6.38,7.2,-0.82
XYZ123-0213,Drug A 10 mg,HBA1C,HbA1c (%),12,Week 12,6.8,7.2,-0.4
XYZ123-0213,Drug A 10 mg,HBA1C,HbA1c (%),24,Week 24,6.18,7.2,-1.02
XYZ123-0214,Drug A 20 mg,HBA1C,HbA1c (%),0,Baseline,8.06,8.06,0.0
XYZ123-0214,Drug A 20 mg,HBA1C,HbA1c (%),2,Week 2,7.95,8.06,-0.11
XYZ123-0214,Drug A 20 mg,HBA1C,HbA1c (%),4,Week 4,8.13,8.06,0.06
XYZ123-0214,Drug A 20 mg,HBA1C,HbA1c (%),8,Week 8,7.34,8.06,-0.72
XYZ123-0214,Drug A 20 mg,HBA1C,HbA1c (%),12,Week 12,6.33,8.06,-1.73
XYZ123-0214,Drug A 20 mg,HBA1C,HbA1c (%),24,Week 24,7.17,8.06,-0.89
XYZ123-0215,Placebo,HBA1C,HbA1c (%),0,Baseline,7.3,7.3,0.0
XYZ123-0215,Placebo,HBA1C,HbA1c (%),2,Week 2,7.56,7.3,0.26
XYZ123-0215,Placebo,HBA1C,HbA1c (%),4,Week 4,6.7,7.3,-0.6
XYZ123-0215,Placebo,HBA1C,HbA1c (%),8,Week 8,7.74,7.3,0.44
XYZ123-0215,Placebo,HBA1C,HbA1c (%),12,Week 12,7.62,7.3,0.32
XYZ123-0215,Placebo,HBA1C,HbA1c (%),24,Week 24,6.99,7.3,-0.31
XYZ123-0216,Drug A 10 mg,HBA1C,HbA1c (%),0,Baseline,6.9,6.9,0.0
XYZ123-0216,Drug A 10 mg,HBA1C,HbA1c (%),2,Week 2,6.5,6.9,-0.39
XYZ123-0216,Drug A 10 mg,HBA1C,HbA1c (%),4,Week 4,7.12,6.9,0.22
XYZ123-0216,Drug A 10 mg,HBA1C,HbA1c (%),8,Week 8,6.89,6.9,-0.01
XYZ123-0216,Drug A 10 mg,HBA1C,HbA1c (%),12,Week 12,6.15,6.9,-0.74
XYZ123-0216,Drug A 10 mg,HBA1C,HbA1c (%),24,Week 24,5.77,6.9,-1.13
XYZ123-0217,Drug A 20 mg,HBA1C,HbA1c (%),0,Baseline,6.47,6.47,0.0
XYZ123-0217,Drug A 20 mg,HBA1C,HbA1c (%),2,Week 2,6.97,6.47,0.5
XYZ123-0217,Drug A 20 mg,HBA1C,HbA1c (%),4,Week 4,5.39,6.47,-1.08
XYZ123-0217,Drug A 20 mg,HBA1C,HbA1c (%),8,Week 8,5.46,6.47,-1.01
XYZ123-0217,Drug A 20 mg,HBA1C,HbA1c (%),12,Week 12,5.41,6.47,-1.06
XYZ123-0217,Drug A 20 mg,HBA1C,HbA1c (%),24,Week 24,5.73,6.47,-0.75
XYZ123-0218,Placebo,HBA1C,HbA1c (%),0,Baseline,7.73,7.73,0.0
XYZ123-0218,Placebo,HBA1C,HbA1c (%),2,Week 2,8.1,7.73,0.37
XYZ123-0218,Placebo,HBA1C,HbA1c (%),4,Week 4,8.56,7.73,0.83
XYZ123-0218,Placebo,HBA1C,HbA1c (%),8,Week 8,8.3,7.73,0.57
XYZ123-0218,Placebo,HBA1C,HbA1c (%),12,Week 12,7.11,7.73,-0.62
XYZ123-0218,Placebo,HBA1C,HbA1c (%),24,Week 24,7.65,7.73,-0.08
XYZ123-0219,Drug A 10 mg,HBA1C,HbA1c (%),0,Baseline,7.58,7.58,0.0
XYZ123-0219,Drug A 10 mg,HBA1C,HbA1c (%),2,Week 2,7.26,7.58,-0.32
XYZ123-0219,Drug A 10 mg,HBA1C,HbA1c (%),4,Week 4,7.72,7.58,0.13
XYZ123-0219,Drug A 10 mg,HBA1C,HbA1c (%),8,Week 8,7.08,7.58,-0.5
XYZ123-0219,Drug A 10 mg,HBA1C,HbA1c (%),12,Week 12,7.01,7.58,-0.57
XYZ123-0219,Drug A 10 mg,HBA1C,HbA1c (%),24,Week 24,6.93,7.58,-0.65
XYZ123-0220,Drug A 20 mg,HBA1C,HbA1c (%),0,Baseline,7.55,7.55,0.0
XYZ123-0220,Drug A 20 mg,HBA1C,HbA1c (%),2,Week 2,7.35,7.55,-0.21
XYZ123-0220,Drug A 20 mg,HBA1C,HbA1c (%),4,Week 4,7.56,7.55,0.01
XYZ123-0220,Drug A 20 mg,HBA1C,HbA1c (%),8,Week 8,6.39,7.55,-1.17
XYZ123-0220,Drug A 20 mg,HBA1C,HbA1c (%),12,Week 12,6.67,7.55,-0.88
XYZ123-0220,Drug A 20 mg,HBA1C,HbA1c (%),24,Week 24,6.81,7.55,-0.74
XYZ123-0221,Placebo,HBA1C,HbA1c (%),0,Baseline,8.79,8.79,0.0
XYZ123-0221,Placebo,HBA1C,HbA1c (%),2,Week 2,8.8,8.79,0.01
XYZ123-0221,Placebo,HBA1C,HbA1c (%),4,Week 4,8.46,8.79,-0.32
XYZ123-0221,Placebo,HBA1C,HbA1c (%),8,Week 8,8.37,8.79,-0.42
XYZ123-0221,Placebo,HBA1C,HbA1c (%),12,Week 12,8.54,8.79,-0.25
XYZ123-0221,Placebo,HBA1C,HbA1c (%),24,Week 24,8.85,8.79,0.06
XYZ123-0222,Drug A 10 mg,HBA1C,HbA1c (%),0,Baseline,6.79,6.79,0.0
XYZ123-0222,Drug A 10 mg,HBA1C,HbA1c (%),2,Week 2,6.68,6.79,-0.11
XYZ123-0222,Drug A 10 mg,HBA1C,HbA1c (%),4,Week 4,6.53,6.79,-0.27
XYZ123-0222,Drug A 10 mg,HBA1C,HbA1c (%),8,Week 8,7.25,6.79,0.46
XYZ123-0222,Drug A 10 mg,HBA1C,HbA1c (%),12,Week 12,6.39,6.79,-0.4
XYZ123-0222,Drug A 10 mg,HBA1C,HbA1c (%),24,Week 24,6.81,6.79,0.01
XYZ123-0223,Drug A 20 mg,HBA1C,HbA1c (%),0,Baseline,7.54,7.54,0.0
XYZ123-0223,Drug A 20 mg,HBA1C,HbA1c (%),2,Week 2,7.41,7.54,-0.13
XYZ123-0223,Drug A 20 mg,HBA1C,HbA1c (%),4,Week 4,7.47,7.54,-0.07
XYZ123-0223,Drug A 20 mg,HBA1C,HbA1c (%),8,Week 8,7.49,7.54,-0.05
XYZ123-0223,Drug A 20 mg,HBA1C,HbA1c (%),12,Week 12,6.44,7.54,-1.11
XYZ123-0223,Drug A 20 mg,HBA1C,HbA1c (%),24,Week 24,6.65,7.54,-0.9
XYZ123-0224,Placebo,HBA1C,HbA1c (%),0,Baseline,7.54,7.54,0.0
XYZ123-0224,Placebo,HBA1C,HbA1c (%),2,Week 2,7.59,7.54,0.06
XYZ123-0224,Placebo,HBA1C,HbA1c (%),4,Week 4,7.35,7.54,-0.18
XYZ123-0224,Placebo,HBA1C,HbA1c (%),8,Week 8,7.85,7.54,0.32
XYZ123-0224,Placebo,HBA1C,HbA1c (%),12,Week 12,7.35,7.54,-0.19
XYZ123-0224,Placebo,HBA1C,HbA1c (%),24,Week 24,6.78,7.54,-0.76
XYZ123-0225,Drug A 10 mg,HBA1C,HbA1c (%),0,Baseline,8.05,8.05,0.0
XYZ123-0225,Drug A 10 mg,HBA1C,HbA1c (%),2,Week 2,7.63,8.05,-0.42
XYZ123-0225,Drug A 10 mg,HBA1C,HbA1c (%),4,Week 4,8.21,8.05,0.16
XYZ123-0225,Drug A 10 mg,HBA1C,HbA1c (%),8,Week 8,7.53,8.05,-0.52
XYZ123-0225,Drug A 10 mg,HBA1C,HbA1c (%),12,Week 12,7.09,8.05,-0.95
XYZ123-0225,Drug A 10 mg,HBA1C,HbA1c (%),24,Week 24,7.53,8.05,-0.51
XYZ123-0226,Drug A 20 mg,HBA1C,HbA1c (%),0,Baseline,6.35,6.35,0.0
XYZ123-0226,Drug A 20 mg,HBA1C,HbA1c (%),2,Week 2,6.3,6.35,-0.05
XYZ123-0226,Drug A 20 mg,HBA1C,HbA1c (%),4,Week 4,5.72,6.35,-0.63
XYZ123-0226,Drug A 20 mg,HBA1C,HbA1c (%),8,Week 8,5.53,6.35,-0.82
XYZ123-0226,Drug A 20 mg,HBA1C,HbA1c (%),12,Week 12,5.57,6.35,-0.78
XYZ123-0226,Drug A 20 mg,HBA1C,HbA1c (%),24,Week 24,5.8,6.35,-0.55
XYZ123-0227,Placebo,HBA1C,HbA1c (%),0,Baseline,6.92,6.92,0.0
XYZ123-0227,Placebo,HBA1C,HbA1c (%),2,Week 2,5.93,6.92,-1.0
XYZ123-0227,Placebo,HBA1C,HbA1c (%),4,Week 4,7.55,6.92,0.63
XYZ123-0227,Placebo,HBA1C,HbA1c (%),8,Week 8,6.99,6.92,0.06
XYZ123-0227,Placebo,HBA1C,HbA1c (%),12,Week 12,6.96,6.92,0.04
XYZ123-0227,Placebo,HBA1C,HbA1c (%),24,Week 24,7.38,6.92,0.46
XYZ123-0228,Drug A 10 mg,HBA1C,HbA1c (%),0,Baseline,8.03,8.03,0.0
XYZ123-0228,Drug A 10 mg,HBA1C,HbA1c (%),2,Week 2,7.67,8.03,-0.36
XYZ123-0228,Drug A 10 mg,HBA1C,HbA1c (%),4,Week 4,7.68,8.03,-0.35
XYZ123-0228,Drug A 10 mg,HBA1C,HbA1c (%),8,Week 8,7.77,8.03,-0.25
XYZ123-0228,Drug A 10 mg,HBA1C,HbA1c (%),12,Week 12,7.24,8.03,-0.79
XYZ123-0228,Drug A 10 mg,HBA1C,HbA1c (%),24,Week 24,7.96,8.03,-0.06
XYZ123-0229,Drug A 20 mg,HBA1C,HbA1c (%),0,Baseline,8.54,8.54,0.0
XYZ123-0229,Drug A 20 mg,HBA1C,HbA1c (%),2,Week 2,8.29,8.54,-0.25
XYZ123-0229,Drug A 20 mg,HBA1C,HbA1c (%),4,Week 4,7.88,8.54,-0.65
XYZ123-0229,Drug A 20 mg,HBA1C,HbA1c (%),8,Week 8,7.48,8.54,-1.05
XYZ123-0229,Drug A 20 mg,HBA1C,HbA1c (%),12,Week 12,7.25,8.54,-1.29
XYZ123-0229,Drug A 20 mg,HBA1C,HbA1c (%),24,Week 24,7.52,8.54,-1.02
XYZ123-0230,Placebo,HBA1C,HbA1c (%),0,Baseline,7.48,7.48,0.0
XYZ123-0230,Placebo,HBA1C,HbA1c (%),2,Week 2,7.74,7.48,0.26
XYZ123-0230,Placebo,HBA1C,HbA1c (%),4,Week 4,7.69,7.48,0.2
XYZ123-0230,Placebo,HBA1C,HbA1c (%),8,Week 8,7.47,7.48,-0.01
XYZ123-0230,Placebo,HBA1C,HbA1c (%),12,Week 12,7.45,7.48,-0.03
XYZ123-0230,Placebo,HBA1C,HbA1c (%),24,Week 24,6.98,7.48,-0.5
XYZ123-0231,Drug A 10 mg,HBA1C,HbA1c (%),0,Baseline,8.02,8.02,0.0
XYZ123-0231,Drug A 10 mg,HBA1C,HbA1c (%),2,Week 2,8.09,8.02,0.07
XYZ123-0231,Drug A 10 mg,HBA1C,HbA1c (%),4,Week 4,7.72,8.02,-0.3
XYZ123-0231,Drug A 10 mg,HBA1C,HbA1c (%),8,Week 8,7.57,8.02,-0.45
XYZ123-0231,Drug A 10 mg,HBA1C,HbA1c (%),12,Week 12,7.17,8.02,-0.84
XYZ123-0231,Drug A 10 mg,HBA1C,HbA1c (%),24,Week 24,7.52,8.02,-0.5
XYZ123-0232,Drug A 20 mg,HBA1C,HbA1c (%),0,Baseline,7.36,7.36,0.0
XYZ123-0232,Drug A 20 mg,HBA1C,HbA1c (%),2,Week 2,6.54,7.36,-0.82
XYZ123-0232,Drug A 20 mg,HBA1C,HbA1c (%),4,Week 4,7.04,7.36,-0.33
XYZ123-0232,Drug A 20 mg,HBA1C,HbA1c (%),8,Week 8,6.87,7.36,-0.49
XYZ123-0232,Drug A 20 mg,HBA1C,HbA1c (%),12,Week 12,6.56,7.36,-0.8
XYZ123-0232,Drug A 20 mg,HBA1C,HbA1c (%),24,Week 24,6.09,7.36,-1.27
XYZ123-0233,Placebo,HBA1C,HbA1c (%),0,Baseline,7.56,7.56,0.0
XYZ123-0233,Placebo,HBA1C,HbA1c (%),2,Week 2,7.77,7.56,0.21
XYZ123-0233,Placebo,HBA1C,HbA1c (%),4,Week 4,7.57,7.56,0.01
XYZ123-0233,Placebo,HBA1C,HbA1c (%),8,Week 8,6.98,7.56,-0.58
XYZ123-0233,Placebo,HBA1C,HbA1c (%),12,Week 12,6.8,7.56,-0.76
XYZ123-0233,Placebo,HBA1C,HbA1c (%),24,Week 24,7.51,7.56,-0.05
XYZ123-0234,Drug A 10 mg,HBA1C,HbA1c (%),0,Baseline,8.71,8.71,0.0
XYZ123-0234,Drug A 10 mg,HBA1C,HbA1c (%),2,Week 2,8.49,8.71,-0.22
XYZ123-0234,Drug A 10 mg,HBA1C,HbA1c (%),4,Week 4,8.46,8.71,-0.25
XYZ123-0234,Drug A 10 mg,HBA1C,HbA1c (%),8,Week 8,8.52,8.71,-0.18
XYZ123-0234,Drug A 10 mg,HBA1C,HbA1c (%),12,Week 12,7.79,8.71,-0.92
XYZ123-0234,Drug A 10 mg,HBA1C,HbA1c (%),24,Week 24,7.59,8.71,-1.12
XYZ123-0235,Drug A 20 mg,HBA1C,HbA1c (%),0,Baseline,7.26,7.26,0.0
XYZ123-0235,Drug A 20 mg,HBA1C,HbA1c (%),2,Week 2,7.12,7.26,-0.14
XYZ123-0235,Drug A 20 mg,HBA1C,HbA1c (%),4,Week 4,6.91,7.26,-0.34
XYZ123-0235,Drug A 20 mg,HBA1C,HbA1c (%),8,Week 8,7.18,7.26,-0.08
XYZ123-0235,Drug A 20 mg,HBA1C,HbA1c (%),12,Week 12,6.7,7.26,-0.55
XYZ123-0235,Drug A 20 mg,HBA1C,HbA1c (%),24,Week 24,6.73,7.26,-0.52
XYZ123-0236,Placebo,HBA1C,HbA1c (%),0,Baseline,7.69,7.69,0.0
XYZ123-0236,Placebo,HBA1C,HbA1c (%),2,Week 2,7.5,7.69,-0.19
XYZ123-0236,Placebo,HBA1C,HbA1c (%),4,Week 4,7.92,7.69,0.22
XYZ123-0236,Placebo,HBA1C,HbA1c (%),8,Week 8,8.06,7.69,0.37
XYZ123-0236,Placebo,HBA1C,HbA1c (%),12,Week 12,8.05,7.69,0.36
XYZ123-0236,Placebo,HBA1C,HbA1c (%),24,Week 24,7.4,7.69,-0.29
XYZ123-0237,Drug A 10 mg,HBA1C,HbA1c (%),0,Baseline,8.28,8.28,0.0
XYZ123-0237,Drug A 10 mg,HBA1C,HbA1c (%),2,Week 2,7.93,8.28,-0.35
XYZ123-0237,Drug A 10 mg,HBA1C,HbA1c (%),4,Week 4,8.19,8.28,-0.09
XYZ123-0237,Drug A 10 mg,HBA1C,HbA1c (%),8,Week 8,7.63,8.28,-0.66
XYZ123-0237,Drug A 10 mg,HBA1C,HbA1c (%),12,Week 12,7.58,8.28,-0.7
XYZ123-0237,Drug A 10 mg,HBA1C,HbA1c (%),24,Week 24,8.12,8.28,-0.17
XYZ123-0238,Drug A 20 mg,HBA1C,HbA1c (%),0,Baseline,8.11,8.11,0.0
XYZ123-0238,Drug A 20 mg,HBA1C,HbA1c (%),2,Week 2,7.83,8.11,-0.29
XYZ123-0238,Drug A 20 mg,HBA1C,HbA1c (%),4,Week 4,7.59,8.11,-0.53
XYZ123-0238,Drug A 20 mg,HBA1C,HbA1c (%),8,Week 8,7.29,8.11,-0.82
XYZ123-0238,Drug A 20 mg,HBA1C,HbA1c (%),12,Week 12,6.48,8.11,-1.63
XYZ123-0238,Drug A 20 mg,HBA1C,HbA1c (%),24,Week 24,7.15,8.11,-0.97
XYZ123-0239,Placebo,HBA1C,HbA1c (%),0,Baseline,7.89,7.89,0.0
XYZ123-0239,Placebo,HBA1C,HbA1c (%),2,Week 2,7.91,7.89,0.01
XYZ123-0239,Placebo,HBA1C,HbA1c (%),4,Week 4,7.74,7.89,-0.15
XYZ123-0239,Placebo,HBA1C,HbA1c (%),8,Week 8,7.82,7.89,-0.07
XYZ123-0239,Placebo,HBA1C,HbA1c (%),12,Week 12,8.35,7.89,0.45
XYZ123-0239,Placebo,HBA1C,HbA1c (%),24,Week 24,7.47,7.89,-0.43
XYZ123-0240,Drug A 10 mg,HBA1C,HbA1c (%),0,Baseline,8.34,8.34,0.0
XYZ123-0240,Drug A 10 mg,HBA1C,HbA1c (%),2,Week 2,8.32,8.34,-0.02
XYZ123-0240,Drug A 10 mg,HBA1C,HbA1c (%),4,Week 4,8.37,8.34,0.02
XYZ123-0240,Drug A 10 mg,HBA1C,HbA1c (%),8,Week 8,8.44,8.34,0.1
XYZ123-0240,Drug A 10 mg,HBA1C,HbA1c (%),12,Week 12,7.25,8.34,-1.09
XYZ123-0240,Drug A 10 mg,HBA1C,HbA1c (%),24,Week 24,7.77,8.34,-0.57
XYZ123-0241,Drug A 20 mg,HBA1C,HbA1c (%),0,Baseline,7.12,7.12,0.0
XYZ123-0241,Drug A 20 mg,HBA1C,HbA1c (%),2,Week 2,7.09,7.12,-0.03
XYZ123-0241,Drug A 20 mg,HBA1C,HbA1c (%),4,Week 4,6.68,7.12,-0.44
XYZ123-0241,Drug A 20 mg,HBA1C,HbA1c (%),8,Week 8,6.53,7.12,-0.59
XYZ123-0241,Drug A 20 mg,HBA1C,HbA1c (%),12,Week 12,6.2,7.12,-0.92
XYZ123-0241,Drug A 20 mg,HBA1C,HbA1c (%),24,Week 24,6.17,7.12,-0.95
XYZ123-0242,Placebo,HBA1C,HbA1c (%),0,Baseline,9.2,9.2,0.0
XYZ123-0242,Placebo,HBA1C,HbA1c (%),2,Week 2,9.35,9.2,0.15
XYZ123-0242,Placebo,HBA1C,HbA1c (%),4,Week 4,9.27,9.2,0.07
XYZ123-0242,Placebo,HBA1C,HbA1c (%),8,Week 8,9.49,9.2,0.29
XYZ123-0242,Placebo,HBA1C,HbA1c (%),12,Week 12,9.36,9.2,0.16
XYZ123-0242,Placebo,HBA1C,HbA1c (%),24,Week 24,8.13,9.2,-1.07
XYZ123-0243,Drug A 10 mg,HBA1C,HbA1c (%),0,Baseline,8.35,8.35,0.0
XYZ123-0243,Drug A 10 mg,HBA1C,HbA1c (%),2,Week 2,7.99,8.35,-0.36
XYZ123-0243,Drug A 10 mg,HBA1C,HbA1c (%),4,Week 4,7.5,8.35,-0.85
XYZ123-0243,Drug A 10 mg,HBA1C,HbA1c (%),8,Week 8,8.26,8.35,-0.09
XYZ123-0243,Drug A 10 mg,HBA1C,HbA1c (%),12,Week 12,8.27,8.35,-0.08
XYZ123-0243,Drug A 10 mg,HBA1C,HbA1c (%),24,Week 24,7.56,8.35,-0.78
XYZ123-0244,Drug A 20 mg,HBA1C,HbA1c (%),0,Baseline,7.59,7.59,0.0
XYZ123-0244,Drug A 20 mg,HBA1C,HbA1c (%),2,Week 2,7.14,7.59,-0.45
XYZ123-0244,Drug A 20 mg,HBA1C,HbA1c (%),4,Week 4,7.4,7.59,-0.19
XYZ123-0244,Drug A 20 mg,HBA1C,HbA1c (%),8,Week 8,6.78,7.59,-0.81
XYZ123-0244,Drug A 20 mg,HBA1C,HbA1c (%),12,Week 12,7.01,7.59,-0.58
XYZ123-0244,Drug A 20 mg,HBA1C,HbA1c (%),24,Week 24,6.54,7.59,-1.06
XYZ123-0245,Placebo,HBA1C,HbA1c (%),0,Baseline,7.65,7.65,0.0
XYZ123-0245,Placebo,HBA1C,HbA1c (%),2,Week 2,7.85,7.65,0.2
XYZ123-0245,Placebo,HBA1C,HbA1c (%),4,Week 4,7.02,7.65,-0.63
XYZ123-0245,Placebo,HBA1C,HbA1c (%),8,Week 8,7.8,7.65,0.15
XYZ123-0245,Placebo,HBA1C,HbA1c (%),12,Week 12,8.56,7.65,0.91
XYZ123-0245,Placebo,HBA1C,HbA1c (%),24,Week 24,7.65,7.65,0.0
XYZ123-0246,Drug A 10 mg,HBA1C,HbA1c (%),0,Baseline,8.36,8.36,0.0
XYZ123-0246,Drug A 10 mg,HBA1C,HbA1c (%),2,Week 2,8.36,8.36,0.01
XYZ123-0246,Drug A 10 mg,HBA1C,HbA1c (%),4,Week 4,8.29,8.36,-0.06
XYZ123-0246,Drug A 10 mg,HBA1C,HbA1c (%),8,Week 8,7.85,8.36,-0.51
XYZ123-0246,Drug A 10 mg,HBA1C,HbA1c (%),12,Week 12,8.02,8.36,-0.34
XYZ123-0246,Drug A 10 mg,HBA1C,HbA1c (%),24,Week 24,7.33,8.36,-1.03
XYZ123-0247,Drug A 20 mg,HBA1C,HbA1c (%),0,Baseline,8.25,8.25,0.0
XYZ123-0247,Drug A 20 mg,HBA1C,HbA1c (%),2,Week 2,7.63,8.25,-0.63
XYZ123-0247,Drug A 20 mg,HBA1C,HbA1c (%),4,Week 4,7.65,8.25,-0.6
XYZ123-0247,Drug A 20 mg,HBA1C,HbA1c (%),8,Week 8,7.56,8.25,-0.69
XYZ123-0247,Drug A 20 mg,HBA1C,HbA1c (%),12,Week 12,7.54,8.25,-0.71
XYZ123-0247,Drug A 20 mg,HBA1C,HbA1c (%),24,Week 24,6.99,8.25,-1.26
XYZ123-0248,Placebo,HBA1C,HbA1c (%),0,Baseline,7.39,7.39,0.0
XYZ123-0248,Placebo,HBA1C,HbA1c (%),2,Week 2,7.65,7.39,0.26
XYZ123-0248,Placebo,HBA1C,HbA1c (%),4,Week 4,7.87,7.39,0.48
XYZ123-0248,Placebo,HBA1C,HbA1c (%),8,Week 8,7.86,7.39,0.47
XYZ123-0248,Placebo,HBA1C,HbA1c (%),12,Week 12,7.18,7.39,-0.22
XYZ123-0248,Placebo,HBA1C,HbA1c (%),24,Week 24,7.44,7.39,0.05
XYZ123-0249,Drug A 10 mg,HBA1C,HbA1c (%),0,Baseline,8.19,8.19,0.0
XYZ123-0249,Drug A 10 mg,HBA1C,HbA1c (%),2,Week 2,8.25,8.19,0.06
XYZ123-0249,Drug A 10 mg,HBA1C,HbA1c (%),4,Week 4,8.33,8.19,0.14
XYZ123-0249,Drug A 10 mg,HBA1C,HbA1c (%),8,Week 8,7.77,8.19,-0.42
XYZ123-0249,Drug A 10 mg,HBA1C,HbA1c (%),12,Week 12,8.06,8.19,-0.13
XYZ123-0249,Drug A 10 mg,HBA1C,HbA1c (%),24,Week 24,7.23,8.19,-0.96
XYZ123-0250,Drug A 20 mg,HBA1C,HbA1c (%),0,Baseline,7.98,7.98,0.0
XYZ123-0250,Drug A 20 mg,HBA1C,HbA1c (%),2,Week 2,6.9,7.98,-1.07
XYZ123-0250,Drug A 20 mg,HBA1C,HbA1c (%),4,Week 4,7.68,7.98,-0.3
XYZ123-0250,Drug A 20 mg,HBA1C,HbA1c (%),8,Week 8,7.11,7.98,-0.86
XYZ123-0250,Drug A 20 mg,HBA1C,HbA1c (%),12,Week 12,7.18,7.98,-0.8
XYZ123-0250,Drug A 20 mg,HBA1C,HbA1c (%),24,Week 24,7.2,7.98,-0.78
XYZ123-0251,Placebo,HBA1C,HbA1c (%),0,Baseline,8.0,8.0,0.0
XYZ123-0251,Placebo,HBA1C,HbA1c (%),2,Week 2,7.83,8.0,-0.17
XYZ123-0251,Placebo,HBA1C,HbA1c (%),4,Week 4,7.92,8.0,-0.08
XYZ123-0251,Placebo,HBA1C,HbA1c (%),8,Week 8,8.02,8.0,0.02
XYZ123-0251,Placebo,HBA1C,HbA1c (%),12,Week 12,8.34,8.0,0.33
XYZ123-0251,Placebo,HBA1C,HbA1c (%),24,Week 24,8.03,8.0,0.03
XYZ123-0252,Drug A 10 mg,HBA1C,HbA1c (%),0,Baseline,7.96,7.96,0.0
XYZ123-0252,Drug A 10 mg,HBA1C,HbA1c (%),2,Week 2,8.02,7.96,0.05
XYZ123-0252,Drug A 10 mg,HBA1C,HbA1c (%),4,Week 4,7.73,7.96,-0.23
XYZ123-0252,Drug A 10 mg,HBA1C,HbA1c (%),8,Week 8,7.74,7.96,-0.23
XYZ123-0252,Drug A 10 mg,HBA1C,HbA1c (%),12,Week 12,7.47,7.96,-0.49
XYZ123-0252,Drug A 10 mg,HBA1C,HbA1c (%),24,Week 24,8.19,7.96,0.22
XYZ123-0253,Drug A 20 mg,HBA1C,HbA1c (%),0,Baseline,8.16,8.16,0.0
XYZ123-0253,Drug A 20 mg,HBA1C,HbA1c (%),2,Week 2,7.18,8.16,-0.98
XYZ123-0253,Drug A 20 mg,HBA1C,HbA1c (%),4,Week 4,7.88,8.16,-0.28
XYZ123-0253,Drug A 20 mg,HBA1C,HbA1c (%),8,Week 8,8.12,8.16,-0.05
XYZ123-0253,Drug A 20 mg,HBA1C,HbA1c (%),12,Week 12,6.98,8.16,-1.18
XYZ123-0253,Drug A 20 mg,HBA1C,HbA1c (%),24,Week 24,7.76,8.16,-0.4
XYZ123-0254,Placebo,HBA1C,HbA1c (%),0,Baseline,6.52,6.52,0.0
XYZ123-0254,Placebo,HBA1C,HbA1c (%),2,Week 2,7.06,6.52,0.54
XYZ123-0254,Placebo,HBA1C,HbA1c (%),4,Week 4,6.66,6.52,0.15
XYZ123-0254,Placebo,HBA1C,HbA1c (%),8,Week 8,6.2,6.52,-0.32
XYZ123-0254,Placebo,HBA1C,HbA1c (%),12,Week 12,7.07,6.52,0.55
XYZ123-0254,Placebo,HBA1C,HbA1c (%),24,Week 24,6.64,6.52,0.13
XYZ123-0255,Drug A 10 mg,HBA1C,HbA1c (%),0,Baseline,8.0,8.0,0.0
XYZ123-0255,Drug A 10 mg,HBA1C,HbA1c (%),2,Week 2,7.99,8.0,-0.01
XYZ123-0255,Drug A 10 mg,HBA1C,HbA1c (%),4,Week 4,8.12,8.0,0.12
XYZ123-0255,Drug A 10 mg,HBA1C,HbA1c (%),8,Week 8,7.87,8.0,-0.13
XYZ123-0255,Drug A 10 mg,HBA1C,HbA1c (%),12,Week 12,7.24,8.0,-0.76
XYZ123-0255,Drug A 10 mg,HBA1C,HbA1c (%),24,Week 24,6.98,8.0,-1.02
XYZ123-0256,Drug A 20 mg,HBA1C,HbA1c (%),0,Baseline,8.32,8.32,0.0
XYZ123-0256,Drug A 20 mg,HBA1C,HbA1c (%),2,Week 2,7.93,8.32,-0.39
XYZ123-0256,Drug A 20 mg,HBA1C,HbA1c (%),4,Week 4,8.31,8.32,-0.01
XYZ123-0256,Drug A 20 mg,HBA1C,HbA1c (%),8,Week 8,7.95,8.32,-0.37
XYZ123-0256,Drug A 20 mg,HBA1C,HbA1c (%),12,Week 12,7.56,8.32,-0.76
XYZ123-0256,Drug A 20 mg,HBA1C,HbA1c (%),24,Week 24,7.41,8.32,-0.92
XYZ123-0257,Placebo,HBA1C,HbA1c (%),0,Baseline,8.81,8.81,0.0
XYZ123-0257,Placebo,HBA1C,HbA1c (%),2,Week 2,9.32,8.81,0.51
XYZ123-0257,Placebo,HBA1C,HbA1c (%),4,Week 4,8.56,8.81,-0.25
XYZ123-0257,Placebo,HBA1C,HbA1c (%),8,Week 8,8.91,8.81,0.1
XYZ123-0257,Placebo,HBA1C,HbA1c (%),12,Week 12,8.45,8.81,-0.36
XYZ123-0257,Placebo,HBA1C,HbA1c (%),24,Week 24,9.07,8.81,0.26
XYZ123-0258,Drug A 10 mg,HBA1C,HbA1c (%),0,Baseline,7.3,7.3,0.0
XYZ123-0258,Drug A 10 mg,HBA1C,HbA1c (%),2,Week 2,6.92,7.3,-0.38
XYZ123-0258,Drug A 10 mg,HBA1C,HbA1c (%),4,Week 4,6.88,7.3,-0.42
XYZ123-0258,Drug A 10 mg,HBA1C,HbA1c (%),8,Week 8,6.87,7.3,-0.43
XYZ123-0258,Drug A 10 mg,HBA1C,HbA1c (%),12,Week 12,6.92,7.3,-0.38
XYZ123-0258,Drug A 10 mg,HBA1C,HbA1c (%),24,Week 24,6.27,7.3,-1.04
XYZ123-0259,Drug A 20 mg,HBA1C,HbA1c (%),0,Baseline,8.22,8.22,0.0
XYZ123-0259,Drug A 20 mg,HBA1C,HbA1c (%),2,Week 2,8.03,8.22,-0.19
XYZ123-0259,Drug A 20 mg,HBA1C,HbA1c (%),4,Week 4,8.22,8.22,0.0
XYZ123-0259,Drug A 20 mg,HBA1C,HbA1c (%),8,Week 8,7.6,8.22,-0.61
XYZ123-0259,Drug A 20 mg,HBA1C,HbA1c (%),12,Week 12,6.83,8.22,-1.39
XYZ123-0259,Drug A 20 mg,HBA1C,HbA1c (%),24,Week 24,6.84,8.22,-1.38
XYZ123-0260,Placebo,HBA1C,HbA1c (%),0,Baseline,8.23,8.23,0.0
XYZ123-0260,Placebo,HBA1C,HbA1c (%),2,Week 2,8.32,8.23,0.1
XYZ123-0260,Placebo,HBA1C,HbA1c (%),4,Week 4,7.75,8.23,-0.48
XYZ123-0260,Placebo,HBA1C,HbA1c (%),8,Week 8,8.03,8.23,-0.2
XYZ123-0260,Placebo,HBA1C,HbA1c (%),12,Week 12,7.97,8.23,-0.26
XYZ123-0260,Placebo,HBA1C,HbA1c (%),24,Week 24,8.04,8.23,-0.19
XYZ123-0261,Drug A 10 mg,HBA1C,HbA1c (%),0,Baseline,8.7,8.7,0.0
XYZ123-0261,Drug A 10 mg,HBA1C,HbA1c (%),2,Week 2,8.4,8.7,-0.3
XYZ123-0261,Drug A 10 mg,HBA1C,HbA1c (%),4,Week 4,7.69,8.7,-1.01
XYZ123-0261,Drug A 10 mg,HBA1C,HbA1c (%),8,Week 8,7.78,8.7,-0.92
XYZ123-0261,Drug A 10 mg,HBA1C,HbA1c (%),12,Week 12,8.62,8.7,-0.08
XYZ123-0261,Drug A 10 mg,HBA1C,HbA1c (%),24,Week 24,8.17,8.7,-0.52
XYZ123-0262,Drug A 20 mg,HBA1C,HbA1c (%),0,Baseline,6.75,6.75,0.0
XYZ123-0262,Drug A 20 mg,HBA1C,HbA1c (%),2,Week 2,6.33,6.75,-0.42
XYZ123-0262,Drug A 20 mg,HBA1C,HbA1c (%),4,Week 4,6.52,6.75,-0.24
XYZ123-0262,Drug A 20 mg,HBA1C,HbA1c (%),8,Week 8,5.86,6.75,-0.9
XYZ123-0262,Drug A 20 mg,HBA1C,HbA1c (%),12,Week 12,6.1,6.75,-0.65
XYZ123-0262,Drug A 20 mg,HBA1C,HbA1c (%),24,Week 24,5.95,6.75,-0.8
XYZ123-0263,Placebo,HBA1C,HbA1c (%),0,Baseline,8.25,8.25,0.0
XYZ123-0263,Placebo,HBA1C,HbA1c (%),2,Week 2,8.07,8.25,-0.17
XYZ123-0263,Placebo,HBA1C,HbA1c (%),4,Week 4,8.21,8.25,-0.03
XYZ123-0263,Placebo,HBA1C,HbA1c (%),8,Week 8,7.84,8.25,-0.41
XYZ123-0263,Placebo,HBA1C,HbA1c (%),12,Week 12,8.29,8.25,0.05
XYZ123-0263,Placebo,HBA1C,HbA1c (%),24,Week 24,8.25,8.25,0.01
XYZ123-0264,Drug A 10 mg,HBA1C,HbA1c (%),0,Baseline,7.87,7.87,0.0
XYZ123-0264,Drug A 10 mg,HBA1C,HbA1c (%),2,Week 2,8.11,7.87,0.24
XYZ123-0264,Drug A 10 mg,HBA1C,HbA1c (%),4,Week 4,7.02,7.87,-0.85
XYZ123-0264,Drug A 10 mg,HBA1C,HbA1c (%),8,Week 8,8.1,7.87,0.22
XYZ123-0264,Drug A 10 mg,HBA1C,HbA1c (%),12,Week 12,7.28,7.87,-0.59
XYZ123-0264,Drug A 10 mg,HBA1C,HbA1c (%),24,Week 24,7.15,7.87,-0.72
XYZ123-0265,Drug A 20 mg,HBA1C,HbA1c (%),0,Baseline,6.38,6.38,0.0
XYZ123-0265,Drug A 20 mg,HBA1C,HbA1c (%),2,Week 2,6.54,6.38,0.16
XYZ123-0265,Drug A 20 mg,HBA1C,HbA1c (%),4,Week 4,6.89,6.38,0.51
XYZ123-0265,Drug A 20 mg,HBA1C,HbA1c (%),8,Week 8,6.0,6.38,-0.37
XYZ123-0265,Drug A 20 mg,HBA1C,HbA1c (%),12,Week 12,5.5,6.38,-0.88
XYZ123-0265,Drug A 20 mg,HBA1C,HbA1c (%),24,Week 24,4.86,6.38,-1.51
XYZ123-0266,Placebo,HBA1C,HbA1c (%),0,Baseline,7.98,7.98,0.0
XYZ123-0266,Placebo,HBA1C,HbA1c (%),2,Week 2,8.42,7.98,0.45
XYZ123-0266,Placebo,HBA1C,HbA1c (%),4,Week 4,8.1,7.98,0.13
XYZ123-0266,Placebo,HBA1C,HbA1c (%),8,Week 8,7.91,7.98,-0.07
XYZ123-0266,Placebo,HBA1C,HbA1c (%),12,Week 12,8.03,7.98,0.05
XYZ123-0266,Placebo,HBA1C,HbA1c (%),24,Week 24,7.98,7.98,0.01
XYZ123-0267,Drug A 10 mg,HBA1C,HbA1c (%),0,Baseline,7.63,7.63,0.0
XYZ123-0267,Drug A 10 mg,HBA1C,HbA1c (%),2,Week 2,7.82,7.63,0.19
XYZ123-0267,Drug A 10 mg,HBA1C,HbA1c (%),4,Week 4,7.03,7.63,-0.6
XYZ123-0267,Drug A 10 mg,HBA1C,HbA1c (%),8,Week 8,7.0,7.63,-0.63
XYZ123-0267,Drug A 10 mg,HBA1C,HbA1c (%),12,Week 12,6.48,7.63,-1.14
XYZ123-0267,Drug A 10 mg,HBA1C,HbA1c (%),24,Week 24,6.8,7.63,-0.83
XYZ123-0268,Drug A 20 mg,HBA1C,HbA1c (%),0,Baseline,7.2,7.2,0.0
XYZ123-0268,Drug A 20 mg,HBA1C,HbA1c (%),2,Week 2,6.54,7.2,-0.65
XYZ123-0268,Drug A 20 mg,HBA1C,HbA1c (%),4,Week 4,7.28,7.2,0.08
XYZ123-0268,Drug A 20 mg,HBA1C,HbA1c (%),8,Week 8,6.85,7.2,-0.35
XYZ123-0268,Drug A 20 mg,HBA1C,HbA1c (%),12,Week 12,6.82,7.2,-0.37
XYZ123-0268,Drug A 20 mg,HBA1C,HbA1c (%),24,Week 24,6.4,7.2,-0.8
XYZ123-0269,Placebo,HBA1C,HbA1c (%),0,Baseline,8.55,8.55,0.0
XYZ123-0269,Placebo,HBA1C,HbA1c (%),2,Week 2,8.64,8.55,0.09
XYZ123-0269,Placebo,HBA1C,HbA1c (%),4,Week 4,8.05,8.55,-0.5
XYZ123-0269,Placebo,HBA1C,HbA1c (%),8,Week 8,8.42,8.55,-0.13
XYZ123-0269,Placebo,HBA1C,HbA1c (%),12,Week 12,8.21,8.55,-0.34
XYZ123-0269,Placebo,HBA1C,HbA1c (%),24,Week 24,8.19,8.55,-0.36
XYZ123-0270,Drug A 10 mg,HBA1C,HbA1c (%),0,Baseline,8.08,8.08,0.0
XYZ123-0270,Drug A 10 mg,HBA1C,HbA1c (%),2,Week 2,8.12,8.08,0.05
XYZ123-0270,Drug A 10 mg,HBA1C,HbA1c (%),4,Week 4,7.82,8.08,-0.26
XYZ123-0270,Drug A 10 mg,HBA1C,HbA1c (%),8,Week 8,8.24,8.08,0.16
XYZ123-0270,Drug A 10 mg,HBA1C,HbA1c (%),12,Week 12,7.58,8.08,-0.5
XYZ123-0270,Drug A 10 mg,HBA1C,HbA1c (%),24,Week 24,6.99,8.08,-1.08
XYZ123-0271,Drug A 20 mg,HBA1C,HbA1c (%),0,Baseline,7.57,7.57,0.0
XYZ123-0271,Drug A 20 mg,HBA1C,HbA1c (%),2,Week 2,6.98,7.57,-0.59
XYZ123-0271,Drug A 20 mg,HBA1C,HbA1c (%),4,Week 4,7.16,7.57,-0.4
XYZ123-0271,Drug A 20 mg,HBA1C,HbA1c (%),8,Week 8,7.09,7.57,-0.48
XYZ123-0271,Drug A 20 mg,HBA1C,HbA1c (%),12,Week 12,6.33,7.57,-1.24
XYZ123-0271,Drug A 20 mg,HBA1C,HbA1c (%),24,Week 24,6.52,7.57,-1.05
XYZ123-0272,Placebo,HBA1C,HbA1c (%),0,Baseline,7.13,7.13,0.0
XYZ123-0272,Placebo,HBA1C,HbA1c (%),2,Week 2,7.11,7.13,-0.01
XYZ123-0272,Placebo,HBA1C,HbA1c (%),4,Week 4,7.64,7.13,0.51
XYZ123-0272,Placebo,HBA1C,HbA1c (%),8,Week 8,7.05,7.13,-0.08
XYZ123-0272,Placebo,HBA1C,HbA1c (%),12,Week 12,6.86,7.13,-0.27
XYZ123-0272,Placebo,HBA1C,HbA1c (%),24,Week 24,7.39,7.13,0.27
XYZ123-0273,Drug A 10 mg,HBA1C,HbA1c (%),0,Baseline,8.84,8.84,0.0
XYZ123-0273,Drug A 10 mg,HBA1C,HbA1c (%),2,Week 2,8.98,8.84,0.13
XYZ123-0273,Drug A 10 mg,HBA1C,HbA1c (%),4,Week 4,8.55,8.84,-0.29
XYZ123-0273,Drug A 10 mg,HBA1C,HbA1c (%),8,Week 8,8.41,8.84,-0.43
XYZ123-0273,Drug A 10 mg,HBA1C,HbA1c (%),12,Week 12,8.32,8.84,-0.53
XYZ123-0273,Drug A 10 mg,HBA1C,HbA1c (%),24,Week 24,8.57,8.84,-0.27
XYZ123-0274,Drug A 20 mg,HBA1C,HbA1c (%),0,Baseline,9.65,9.65,0.0
XYZ123-0274,Drug A 20 mg,HBA1C,HbA1c (%),2,Week 2,9.26,9.65,-0.38
XYZ123-0274,Drug A 20 mg,HBA1C,HbA1c (%),4,Week 4,9.73,9.65,0.08
XYZ123-0274,Drug A 20 mg,HBA1C,HbA1c (%),8,Week 8,9.15,9.65,-0.5
XYZ123-0274,Drug A 20 mg,HBA1C,HbA1c (%),12,Week 12,8.9,9.65,-0.74
XYZ123-0274,Drug A 20 mg,HBA1C,HbA1c (%),24,Week 24,9.19,9.65,-0.46
XYZ123-0275,Placebo,HBA1C,HbA1c (%),0,Baseline,7.74,7.74,0.0
XYZ123-0275,Placebo,HBA1C,HbA1c (%),2,Week 2,7.3,7.74,-0.43
XYZ123-0275,Placebo,HBA1C,HbA1c (%),4,Week 4,7.51,7.74,-0.22
XYZ123-0275,Placebo,HBA1C,HbA1c (%),8,Week 8,7.97,7.74,0.23
XYZ123-0275,Placebo,HBA1C,HbA1c (%),12,Week 12,8.18,7.74,0.44
XYZ123-0275,Placebo,HBA1C,HbA1c (%),24,Week 24,7.45,7.74,-0.29
XYZ123-0276,Drug A 10 mg,HBA1C,HbA1c (%),0,Baseline,8.33,8.33,0.0
XYZ123-0276,Drug A 10 mg,HBA1C,HbA1c (%),2,Week 2,8.3,8.33,-0.03
XYZ123-0276,Drug A 10 mg,HBA1C,HbA1c (%),4,Week 4,8.49,8.33,0.16
XYZ123-0276,Drug A 10 mg,HBA1C,HbA1c (%),8,Week 8,8.55,8.33,0.22
XYZ123-0276,Drug A 10 mg,HBA1C,HbA1c (%),12,Week 12,7.65,8.33,-0.68
XYZ123-0276,Drug A 10 mg,HBA1C,HbA1c (%),24,Week 24,7.7,8.33,-0.63
XYZ123-0277,Drug A 20 mg,HBA1C,HbA1c (%),0,Baseline,7.74,7.74,0.0
XYZ123-0277,Drug A 20 mg,HBA1C,HbA1c (%),2,Week 2,6.91,7.74,-0.83
XYZ123-0277,Drug A 20 mg,HBA1C,HbA1c (%),4,Week 4,7.47,7.74,-0.27
XYZ123-0277,Drug A 20 mg,HBA1C,HbA1c (%),8,Week 8,7.48,7.74,-0.26
XYZ123-0277,Drug A 20 mg,HBA1C,HbA1c (%),12,Week 12,6.89,7.74,-0.85
XYZ123-0277,Drug A 20 mg,HBA1C,HbA1c (%),24,Week 24,7.5,7.74,-0.24
XYZ123-0278,Placebo,HBA1C,HbA1c (%),0,Baseline,6.19,6.19,0.0
XYZ123-0278,Placebo,HBA1C,HbA1c (%),2,Week 2,6.17,6.19,-0.02
XYZ123-0278,Placebo,HBA1C,HbA1c (%),4,Week 4,6.09,6.19,-0.1
XYZ123-0278,Placebo,HBA1C,HbA1c (%),8,Week 8,5.62,6.19,-0.57
XYZ123-0278,Placebo,HBA1C,HbA1c (%),12,Week 12,5.93,6.19,-0.26
XYZ123-0278,Placebo,HBA1C,HbA1c (%),24,Week 24,6.13,6.19,-0.06
XYZ123-0279,Drug A 10 mg,HBA1C,HbA1c (%),0,Baseline,7.62,7.62,0.0
XYZ123-0279,Drug A 10 mg,HBA1C,HbA1c (%),2,Week 2,7.39,7.62,-0.24
XYZ123-0279,Drug A 10 mg,HBA1C,HbA1c (%),4,Week 4,6.8,7.62,-0.83
XYZ123-0279,Drug A 10 mg,HBA1C,HbA1c (%),8,Week 8,7.38,7.62,-0.24
XYZ123-0279,Drug A 10 mg,HBA1C,HbA1c (%),12,Week 12,7.57,7.62,-0.05
XYZ123-0279,Drug A 10 mg,HBA1C,HbA1c (%),24,Week 24,7.05,7.62,-0.58
XYZ123-0280,Drug A 20 mg,HBA1C,HbA1c (%),0,Baseline,8.22,8.22,0.0
XYZ123-0280,Drug A 20 mg,HBA1C,HbA1c (%),2,Week 2,8.16,8.22,-0.06
XYZ123-0280,Drug A 20 mg,HBA1C,HbA1c (%),4,Week 4,7.61,8.22,-0.61
XYZ123-0280,Drug A 20 mg,HBA1C,HbA1c (%),8,Week 8,7.28,8.22,-0.94
XYZ123-0280,Drug A 20 mg,HBA1C,HbA1c (%),12,Week 12,7.04,8.22,-1.18
XYZ123-0280,Drug A 20 mg,HBA1C,HbA1c (%),24,Week 24,7.11,8.22,-1.11
